--,prolific_id,study_id,session_id,date,expName,psychopyVersion,OS,frameRate,key_resp_3.keys,key_resp_3.rt,key_resp_3.duration,main_start_keys_3.keys,main_start_keys_3.rt,main_start_keys_3.duration,trial_score_pract,total_score_pract,treshold_pract,trial_duration_pract,nr_of_incr_pract,threshold_reached,time_sequence,mintime_sequence_all,mintime_pract at t,rtArray,practicetrials.thisRepN,practicetrials.thisTrialN,practicetrials.thisN,practicetrials.thisIndex,practicetrials.ran,practPumps,effTresh,pract_img_keys.keys,pract_img_keys.rt,pract_img_keys.duration,reactionTimes_pract2,reactionTimesData_pract2,averageReactionTimesData_pract2,rtPercentageData_pract2,maxTime_pract2,minTime_pract2,maxPosBar_pract2,minPosBar_pract2,Accum points 2nd practice,percentage of bar reached_pract2,achieved_pract2,effLevel_pract2,practicetrials_2.thisRepN,practicetrials_2.thisTrialN,practicetrials_2.thisN,practicetrials_2.thisIndex,practicetrials_2.ran,Points,FeedbackText1,FeedbackText2,stimFile,effLevel,quiz_info_keys.keys,quiz_info_keys.rt,quiz_info_keys.duration,quizinfo.thisRepN,quizinfo.thisTrialN,quizinfo.thisN,quizinfo.thisIndex,quizinfo.ran,correct,response,quiz_score,next_quest.keys,next_quest.rt,next_quest.duration,instructionquiz.thisRepN,instructionquiz.thisTrialN,instructionquiz.thisN,instructionquiz.thisIndex,instructionquiz.ran,correctResp,question,resp1,resp2,resp3,main_start_keys.keys,main_start_keys.rt,main_start_keys.duration,rewRating,AnchorRewRating,AccuracyRewardRating,PossiblePointsSoFar,AccumulatedPointsSoFar,reward.response,reward.rt,login_reward.keys,login_reward.rt,login_reward.duration,effRating,AnchorEffRating,AccuracyEffortRating,slider.response,slider.rt,reactionTimes,reactionTimesData,averageReactionTimesData,rtPercentageData,maxTime,minTime,maxPosBar,minPosBar,Accum points main trials,percentage of bar reached,minimum RT on current trial,achieved,trials.thisRepN,trials.thisTrialN,trials.thisN,trials.thisIndex,trials.ran,end_break.keys,blocks.thisRepN,blocks.thisTrialN,blocks.thisN,blocks.thisIndex,blocks.ran,BlockNumber,TrialFile,TotalBlockNumber,bonusPayment,task_duration,end_key.keys,end_key.rt,end_key.duration,end.thisRepN,end.thisTrialN,end.thisN,end.thisIndex,end.ran
Please be patient as the study loads,66706a23c37c6099480f039d,66d895541319693e0a3a3141,66db1c8504a9fa4fe9ead5e6,2024-09-06_11h17.32.305,RewardEffortLearning_pilot7b,2023.1.3,Win32,6.540222368,,,,,,,,,,,,,,,,,,,,,,,,,,,,,,,,,,,,,,,,,,,,,,,,,,,,,,,,,,,,,,,,,,,,,,,,,,,,,,,,,,,,,,,,,,,,,,,,,,,,,,,,,,,,,,,,,,,,,,,,,,,,,,
Please be patient as the study loads,66706a23c37c6099480f039d,66d895541319693e0a3a3141,66db1c8504a9fa4fe9ead5e6,2024-09-06_11h17.32.305,RewardEffortLearning_pilot7b,2023.1.3,Win32,6.540222368,return,32.8982,,,,,,,,,,,,,,,,,,,,,,,,,,,,,,,,,,,,,,,,,,,,,,,,,,,,,,,,,,,,,,,,,,,,,,,,,,,,,,,,,,,,,,,,,,,,,,,,,,,,,,,,,,,,,,,,,,,,,,,,,,,,
Please be patient as the study loads,66706a23c37c6099480f039d,66d895541319693e0a3a3141,66db1c8504a9fa4fe9ead5e6,2024-09-06_11h17.32.305,RewardEffortLearning_pilot7b,2023.1.3,Win32,6.540222368,,,,"[""return""]",[32.62050000000001],[null],,,,,,,,,,,,,,,,,,,,,,,,,,,,,,,,,,,,,,,,,,,,,,,,,,,,,,,,,,,,,,,,,,,,,,,,,,,,,,,,,,,,,,,,,,,,,,,,,,,,,,,,,,,,,,,,,,,,,,,,
Please be patient as the study loads,66706a23c37c6099480f039d,66d895541319693e0a3a3141,66db1c8504a9fa4fe9ead5e6,2024-09-06_11h17.32.305,RewardEffortLearning_pilot7b,2023.1.3,Win32,6.540222368,,,,,,,,,,,,,,,,,,,,,,,,,,,,,,,,,,,,,,,,,,,,,,,,,,,,,,,,,,,,,,,,,,,,,,,,,,,,,,,,,,,,,,,,,,,,,,,,,,,,,,,,,,,,,,,,,,,,,,,,,,,,,,
Please be patient as the study loads,66706a23c37c6099480f039d,66d895541319693e0a3a3141,66db1c8504a9fa4fe9ead5e6,2024-09-06_11h17.32.305,RewardEffortLearning_pilot7b,2023.1.3,Win32,6.540222368,,,,,,,,0,-0.36,11.7445,13,FALSE,"[[0.4512000000476917,0.24770000004767212,0.21879999995232424,0.20290000009535447,0.24420000004769804,0.3942000000476753,0.19629999995231628,0.3976000001430293,0.4227000000476835,0.3958999998569368,0.6162999999523038,0.39530000019072986,0.587700000047704]]",[0.19629999995231628],0.1963,"[0.4512000000476917,0.24770000004767212,0.21879999995232424,0.20290000009535447,0.24420000004769804,0.3942000000476753,0.19629999995231628,0.3976000001430293,0.4227000000476835,0.3958999998569368,0.6162999999523038,0.39530000019072986,0.587700000047704]",0,0,0,0,1,25,-0.36,,,,,,,,,,,,,,,,,,,,,,,,,,,,,,,,,,,,,,,,,,,,,,,,,,,,,,,,,,,,,,,,,,,,,,,,,,,,,,,,,,,,,,,,,,,,,,,,,,,,,,,
Please be patient as the study loads,66706a23c37c6099480f039d,66d895541319693e0a3a3141,66db1c8504a9fa4fe9ead5e6,2024-09-06_11h17.32.305,RewardEffortLearning_pilot7b,2023.1.3,Win32,6.540222368,,,,,,,,0,-0.22,10.5851,5,FALSE,"[[2.632700000047663,1.3992999999523192,0.7896999998092724,0.9989999999999952,1.0142999999523]]","[0.19629999995231628,0.7896999998092724]",0.1963,"[2.632700000047663,1.3992999999523192,0.7896999998092724,0.9989999999999952,1.0142999999523]",0,1,1,1,1,50,-0.22,,,,,,,,,,,,,,,,,,,,,,,,,,,,,,,,,,,,,,,,,,,,,,,,,,,,,,,,,,,,,,,,,,,,,,,,,,,,,,,,,,,,,,,,,,,,,,,,,,,,,,,
Please be patient as the study loads,66706a23c37c6099480f039d,66d895541319693e0a3a3141,66db1c8504a9fa4fe9ead5e6,2024-09-06_11h17.32.305,RewardEffortLearning_pilot7b,2023.1.3,Win32,6.540222368,,,,,,,,0,0.05,10.8498,19,FALSE,"[[0.19350000000000023,0.1982999999522974,0.21219999980928606,0.407900000095367,0.41059999990463325,0.20459999990461597,0.39570000004766825,0.20990000009535947,0.2032000000476728,0.1956999998092499,0.1945999999046535,0.3925000000000125,0.20270000004768463,0.39129999995230946,0.19419999980925695,0.20820000004769668,0.4263999998569261,0.20790000009537835,0.19639999985693635]]","[0.19629999995231628,0.7896999998092724,0.19350000000000023]",0.1935,"[0.19350000000000023,0.1982999999522974,0.21219999980928606,0.407900000095367,0.41059999990463325,0.20459999990461597,0.39570000004766825,0.20990000009535947,0.2032000000476728,0.1956999998092499,0.1945999999046535,0.3925000000000125,0.20270000004768463,0.39129999995230946,0.19419999980925695,0.20820000004769668,0.4263999998569261,0.20790000009537835,0.19639999985693635]",0,2,2,2,1,100,0.05,,,,,,,,,,,,,,,,,,,,,,,,,,,,,,,,,,,,,,,,,,,,,,,,,,,,,,,,,,,,,,,,,,,,,,,,,,,,,,,,,,,,,,,,,,,,,,,,,,,,,,,
Please be patient as the study loads,66706a23c37c6099480f039d,66d895541319693e0a3a3141,66db1c8504a9fa4fe9ead5e6,2024-09-06_11h17.32.305,RewardEffortLearning_pilot7b,2023.1.3,Win32,6.540222368,,,,,,,,,,,,,,,,,,,,,,,,"[""return""]",[33.033299999952305],[0.00029999995228990883],"[{""time"":388.7557000000477,""reactionTime"":1},{""time"":389.4917000000477,""reactionTime"":1},{""time"":390.14160000014306,""reactionTime"":1},{""time"":390.842600000143,""reactionTime"":1},{""time"":391.47190000009533,""reactionTime"":1},{""time"":392.5662000000477,""reactionTime"":0.43859999990462484},{""time"":393.4603000001907,""reactionTime"":0.681100000143033},{""time"":394.33370000004766,""reactionTime"":0.4092000000476901},{""time"":395.16390000009534,""reactionTime"":0.6022000000476737},{""time"":395.76620000004766,""reactionTime"":0.406799999952284},{""time"":396.6003000001907,""reactionTime"":0.4092000000476901},{""time"":397.3972000000477,""reactionTime"":0.5868999998569393},{""time"":398.1767000000477,""reactionTime"":1},{""time"":398.78440000009533,""reactionTime"":1},{""time"":399.36590000009534,""reactionTime"":1},{""time"":399.573,""reactionTime"":1.978999999999985},{""time"":400.16790000009536,""reactionTime"":1},{""time"":401.23810000014305,""reactionTime"":0.4387000000476746},{""time"":401.88710000014305,""reactionTime"":0.19260000014304524}]","[0.43859999990462484,0.681100000143033,0.4092000000476901,0.6022000000476737,0.406799999952284,0.4092000000476901,0.5868999998569393,1.978999999999985,0.4387000000476746,0.19260000014304524]","[1,1,1,1,1,1,1,1,1,1,1,1,1,1,1,0.43859999990462484,0.43859999990462484,0.43859999990462484,0.681100000143033,0.681100000143033,0.681100000143033,0.4092000000476901,0.4092000000476901,0.4092000000476901,0.6022000000476737,0.6022000000476737,0.6022000000476737,0.406799999952284,0.406799999952284,0.406799999952284,0.4092000000476901,0.4092000000476901,0.4092000000476901,0.5868999998569393,0.5868999998569393,0.5868999998569393,1,1,1,1,1,1,1,1.4894999999999925,1.4894999999999925,1.978999999999985,1,1,1,0.4387000000476746,0.4387000000476746,0.4387000000476746,0.19260000014304524,0.19260000014304524,0.19260000014304524]","[0,0,0,0,0,0,0,0,0,0,69.60942344641975,69.60942344641975,69.60942344641975,39.54122750861341,39.54122750861341,39.54122750861341,73.2548047058041,73.2548047058041,73.2548047058041,49.324240539656095,49.324240539656095,49.324240539656095,73.55238686270505,73.55238686270505,73.55238686270505,73.2548047058041,73.2548047058041,73.2548047058041,51.221326738135254,51.221326738135254,51.221326738135254,0,0,0,0,0,0,0,0,0,0,0,0,0,69.597024172638,69.597024172638,69.597024172638,100,100,100]",1,0.1935,0.05,-0.5,0,35.96131432,FALSE,75,0,0,0,0,1,1,"You reached the planet, you get 1 ruby!",You did not have enough fuel to reach the planet and missed 1 ruby!,stim/image1.png,75,,,,,,,,,,,,,,,,,,,,,,,,,,,,,,,,,,,,,,,,,,,,,,,,,,,,,,,,,,,,,,,,,,,,,,,,,,,,,,
Please be patient as the study loads,66706a23c37c6099480f039d,66d895541319693e0a3a3141,66db1c8504a9fa4fe9ead5e6,2024-09-06_11h17.32.305,RewardEffortLearning_pilot7b,2023.1.3,Win32,6.540222368,,,,,,,,,,,,,,,,,,,,,,,,,,,"[{""time"":410.22540000009536,""reactionTime"":1},{""time"":410.8392000000477,""reactionTime"":1},{""time"":411.457,""reactionTime"":1},{""time"":412.0419000000954,""reactionTime"":1},{""time"":413.037600000143,""reactionTime"":1},{""time"":413.4547000000477,""reactionTime"":1.0097999999523495},{""time"":414.24720000004766,""reactionTime"":0.19120000004767235},{""time"":414.84,""reactionTime"":0.19559999990462984},{""time"":415.6395,""reactionTime"":0.19600000000002638},{""time"":416.2269000000954,""reactionTime"":1},{""time"":417.0324000000954,""reactionTime"":1},{""time"":417.6214000000954,""reactionTime"":1},{""time"":417.81990000009534,""reactionTime"":1.37529999995229},{""time"":418.3985,""reactionTime"":1},{""time"":418.79610000014304,""reactionTime"":0.20270000004768463},{""time"":419.4275,""reactionTime"":0.22059999990466395},{""time"":420.0265,""reactionTime"":1},{""time"":420.64660000014305,""reactionTime"":0.19690000009535424},{""time"":421.25560000014303,""reactionTime"":1},{""time"":421.8537000000477,""reactionTime"":0.19670000004771282},{""time"":422.45030000019074,""reactionTime"":1}]","[1.0097999999523495,0.19120000004767235,0.19559999990462984,0.19600000000002638,1.37529999995229,0.20270000004768463,0.22059999990466395,0.19690000009535424,0.19670000004771282]","[1,1,1,1,1,1,1,1,1,1,1,1,1,1,1.0048999999761747,1.0097999999523495,1.0097999999523495,0.19120000004767235,0.19120000004767235,0.19120000004767235,0.19559999990462984,0.19559999990462984,0.19559999990462984,0.19600000000002638,0.19600000000002638,0.19600000000002638,1,1,1,1,1,1,1,1.187649999976145,1.187649999976145,1.37529999995229,1,1,0.6013500000238423,0.20270000004768463,0.20270000004768463,0.22059999990466395,0.22059999990466395,0.22059999990466395,1,1,1,0.19690000009535424,0.19690000009535424,0.19690000009535424,1,1,1,0.19670000004771282,0.19670000004771282,0.19670000004771282,1]","[0,0,0,0,0,0,0,0,0,0,0,0,100,100,100,99.62843698760018,99.62843698760018,99.62843698760018,99.5788952368611,99.5788952368611,99.5788952368611,0,0,0,0,0,0,0,0,0,0,0,0,49.374535551992274,98.74907110398455,98.74907110398455,96.53207830485763,96.53207830485763,96.53207830485763,0,0,0,99.46742631247575,99.46742631247575,99.46742631247575,0,0,0,99.49219718783824,99.49219718783824,99.49219718783824,0]",1,0.1926,0.05,-0.5,0,39.05711115,FALSE,75,0,1,1,1,1,0,"You reached the planet, but there were no rubies!",You did not have enough fuel to reach the planet and missed 0 rubies!,stim/None.png,75,,,,,,,,,,,,,,,,,,,,,,,,,,,,,,,,,,,,,,,,,,,,,,,,,,,,,,,,,,,,,,,,,,,,,,,,,,,,,,
Please be patient as the study loads,66706a23c37c6099480f039d,66d895541319693e0a3a3141,66db1c8504a9fa4fe9ead5e6,2024-09-06_11h17.32.305,RewardEffortLearning_pilot7b,2023.1.3,Win32,6.540222368,,,,,,,,,,,,,,,,,,,,,,,,,,,"[{""time"":431.01420000004765,""reactionTime"":1},{""time"":431.534,""reactionTime"":1.1980999999046276},{""time"":432.1768000001907,""reactionTime"":1},{""time"":432.5992000000477,""reactionTime"":0.21609999990465667},{""time"":433.22360000014305,""reactionTime"":0.21279999995232401},{""time"":433.89240000009534,""reactionTime"":1},{""time"":434.50910000014306,""reactionTime"":0.414900000095372},{""time"":435.79520000004766,""reactionTime"":1},{""time"":436.42160000014303,""reactionTime"":1},{""time"":437.03430000019074,""reactionTime"":1},{""time"":437.6435,""reactionTime"":1},{""time"":438.078100000143,""reactionTime"":2.9344000000953656},{""time"":438.72930000019073,""reactionTime"":0.21960000014303205},{""time"":439.39549999999997,""reactionTime"":0.227899999856902},{""time"":440.04680000019073,""reactionTime"":1}]","[1.1980999999046276,0.21609999990465667,0.21279999995232401,0.414900000095372,2.9344000000953656,0.21960000014303205,0.227899999856902]","[1,1,1.1980999999046276,1.1980999999046276,1.1980999999046276,1,1,0.6080499999523283,0.21609999990465667,0.21609999990465667,0.21279999995232401,0.21279999995232401,0.21279999995232401,1,1,1,0.414900000095372,0.414900000095372,0.414900000095372,1,1,1,1,1,1,1,1,1,1,1,1.9672000000476828,2.9344000000953656,2.9344000000953656,0.21960000014303205,0.21960000014303205,0.21960000014303205,0.227899999856902,0.227899999856902,0.227899999856902,1,1,1]","[0,0,0,0,0,48.460682501332094,96.92136500266419,96.92136500266419,97.32937686623086,97.32937686623086,97.32937686623086,0,0,0,72.3417408431151,72.3417408431151,72.3417408431151,0,0,0,0,0,0,0,0,0,0,0,0,0,0,96.48862511164272,96.48862511164272,96.48862511164272,95.46241347534708,95.46241347534708,95.46241347534708,0,0,0]",1,0.1912,0.05,-0.5,3,33.17924703,TRUE,25,0,2,2,2,1,3,"You reached the planet, you get 3 rubies!",You did not have enough fuel to reach the planet and missed 3 rubies!,stim/image3.png,25,,,,,,,,,,,,,,,,,,,,,,,,,,,,,,,,,,,,,,,,,,,,,,,,,,,,,,,,,,,,,,,,,,,,,,,,,,,,,,
Please be patient as the study loads,66706a23c37c6099480f039d,66d895541319693e0a3a3141,66db1c8504a9fa4fe9ead5e6,2024-09-06_11h17.32.305,RewardEffortLearning_pilot7b,2023.1.3,Win32,6.540222368,,,,,,,,,,,,,,,,,,,,,,,,,,,"[{""time"":448.96140000009535,""reactionTime"":1},{""time"":449.5655,""reactionTime"":1},{""time"":450.15640000009535,""reactionTime"":1},{""time"":450.34790000009536,""reactionTime"":1.9762000000476974},{""time"":450.96,""reactionTime"":0.4138999998569375},{""time"":451.763,""reactionTime"":0.4111999998092415},{""time"":452.356,""reactionTime"":0.20009999990463712},{""time"":453.3727000000477,""reactionTime"":1},{""time"":453.5738000001907,""reactionTime"":0.8223000001907508},{""time"":454.15390000009535,""reactionTime"":1},{""time"":455.17160000014303,""reactionTime"":1},{""time"":455.3929000000954,""reactionTime"":0.8395999999046353},{""time"":456.47430000019074,""reactionTime"":1},{""time"":457.1187000000477,""reactionTime"":1},{""time"":457.74649999999997,""reactionTime"":1.921599999904629}]","[1.9762000000476974,0.4138999998569375,0.4111999998092415,0.20009999990463712,0.8223000001907508,0.8395999999046353,1.921599999904629]","[1,1,1,1,1,1,1,1.4881000000238487,1.4881000000238487,1.9762000000476974,0.4138999998569375,0.4138999998569375,0.4138999998569375,0.4111999998092415,0.4111999998092415,0.4111999998092415,0.20009999990463712,0.20009999990463712,0.20009999990463712,1,0.9111500000953754,0.9111500000953754,0.8223000001907508,1,1,1,1,0.9197999999523176,0.9197999999523176,0.8395999999046353,1,1,1,1,1,1,1.921599999904629,1.921599999904629,1.921599999904629]","[0,0,0,0,0,0,0,72.46538083303764,72.46538083303764,72.46538083303764,72.79920873212953,72.79920873212953,72.79920873212953,98.89960436974661,98.89960436974661,98.89960436974661,0,10.985410473523938,10.985410473523938,21.970820947047876,0,0,0,0,9.91592483338396,9.91592483338396,19.83184966676793,0,0,0,0,0,0,0,0,0]",1,0.1912,0.05,-0.5,3,22.66938675,FALSE,50,0,3,3,3,1,3,"You reached the planet,  you get 2 rubies!",You did not have enough fuel to reach the planet and missed 2 rubies!,stim/image2.png,50,,,,,,,,,,,,,,,,,,,,,,,,,,,,,,,,,,,,,,,,,,,,,,,,,,,,,,,,,,,,,,,,,,,,,,,,,,,,,,
Please be patient as the study loads,66706a23c37c6099480f039d,66d895541319693e0a3a3141,66db1c8504a9fa4fe9ead5e6,2024-09-06_11h17.32.305,RewardEffortLearning_pilot7b,2023.1.3,Win32,6.540222368,,,,,,,,,,,,,,,,,,,,,,,,,,,,,,,,,,,,,,,,,,,,,,,,,"[""return""]",[22.091000000000008],[0.00020000004769826774],0,0,0,0,1,,,,,,,,,,,,,,,,,,,,,,,,,,,,,,,,,,,,,,,,,,,,,,,,,,,,,,,,,,,,,,,,,,,,,,
Please be patient as the study loads,66706a23c37c6099480f039d,66d895541319693e0a3a3141,66db1c8504a9fa4fe9ead5e6,2024-09-06_11h17.32.305,RewardEffortLearning_pilot7b,2023.1.3,Win32,6.540222368,,,,,,,,,,,,,,,,,,,,,,,,,,,,,,,,,,,,,,,,,,,,,,,,,"[""return""]",[1.141200000047661],[null],1,0,1,0,1,,,,,,,,,,,,,,,,,,,,,,,,,,,,,,,,,,,,,,,,,,,,,,,,,,,,,,,,,,,,,,,,,,,,,,
Please be patient as the study loads,66706a23c37c6099480f039d,66d895541319693e0a3a3141,66db1c8504a9fa4fe9ead5e6,2024-09-06_11h17.32.305,RewardEffortLearning_pilot7b,2023.1.3,Win32,6.540222368,,,,,,,,,,,,,,,,,,,,,,,,,,,,,,,,,,,,,,,,,,,,,,,,,,,,,,,,,TRUE,2,1,"[""return""]",[6.905700000047659],[0.00020000004769826774],0,0,0,2,1,2,"Throughout the game, what will change that you need to pay attention to?",1. Only the number of rubies on each planet.,2. Both the fuel needed to reach a planet and the number of rubies you can find there.,3. Only how much fuel it takes to reach each planet. ,,,,,,,,,,,,,,,,,,,,,,,,,,,,,,,,,,,,,,,,,,,,,,,,,,,,,,
Please be patient as the study loads,66706a23c37c6099480f039d,66d895541319693e0a3a3141,66db1c8504a9fa4fe9ead5e6,2024-09-06_11h17.32.305,RewardEffortLearning_pilot7b,2023.1.3,Win32,6.540222368,,,,,,,,,,,,,,,,,,,,,,,,,,,,,,,,,,,,,,,,,,,,,,,,,,,,,,,,,TRUE,3,2,"[""return""]",[3.1257000000476864],[null],0,1,1,0,1,3,How do you control your spaceship to reach each planet?,1. Press the 'z' and 'p' keys as fast as I can - energy waste does not matter.,2. Only press the 'z' key – that's how you move the spaceship.  ,3. Use the 'z' and 'p' keys to carefully fill the fuel tank close to the true threshold.,,,,,,,,,,,,,,,,,,,,,,,,,,,,,,,,,,,,,,,,,,,,,,,,,,,,,,
Please be patient as the study loads,66706a23c37c6099480f039d,66d895541319693e0a3a3141,66db1c8504a9fa4fe9ead5e6,2024-09-06_11h17.32.305,RewardEffortLearning_pilot7b,2023.1.3,Win32,6.540222368,,,,,,,,,,,,,,,,,,,,,,,,,,,,,,,,,,,,,,,,,,,,,,,,,,,,,,,,,TRUE,2,3,"[""return""]",[12.59160000014299],[0.00019999980929696903],0,2,2,1,1,2,"If a planet has a huge pile of rubies, that means…",1. It will need a lot of fuel to reach it.,2. The number of rubies has nothing to do with how much fuel it takes to get there.,3. It will likely be easy and quick to travel there. ,,,,,,,,,,,,,,,,,,,,,,,,,,,,,,,,,,,,,,,,,,,,,,,,,,,,,,
Please be patient as the study loads,66706a23c37c6099480f039d,66d895541319693e0a3a3141,66db1c8504a9fa4fe9ead5e6,2024-09-06_11h17.32.305,RewardEffortLearning_pilot7b,2023.1.3,Win32,6.540222368,,,,,,,,,,,,,,,,,,,,,,,,,,,,,,,,,,,,,,,,,,,,,,,,,,,,,,,,,TRUE,1,4,"[""return""]",[1.104299999952218],[null],0,3,3,3,1,1,"Throughout the game, does it make sense to always indicate the maximum amount of fuel?","1. No, I should adjust the fuel indication to match the true threshold. Maxing out could drain my energy before the game ends.","2. Yes, indicating the maximum is always advantageous.",3. It does not matter how much fuel I indicate.,,,,,,,,,,,,,,,,,,,,,,,,,,,,,,,,,,,,,,,,,,,,,,,,,,,,,,
Please be patient as the study loads,66706a23c37c6099480f039d,66d895541319693e0a3a3141,66db1c8504a9fa4fe9ead5e6,2024-09-06_11h17.32.305,RewardEffortLearning_pilot7b,2023.1.3,Win32,6.540222368,,,,,,,,,,,,,,,,,,,,,,,,,,,,,,,,,,,,,,,,,,,,,,,,,,,,,,,,,,,,,,,,,,,,,,,,,"[""return""]",[4.6438000001907085],[0],,,,,,,,,,,,,,,,,,,,,,,,,,,,,,,,,,,,,,,,,,,,,,,,,,,
Please be patient as the study loads,66706a23c37c6099480f039d,66d895541319693e0a3a3141,66db1c8504a9fa4fe9ead5e6,2024-09-06_11h17.32.305,RewardEffortLearning_pilot7b,2023.1.3,Win32,6.540222368,,,,,,,,,,,,,,,,,,,,,,,,,,,,,,,,,,,,,,,,,,,,2,"You reached the planet, you get 2 rubies!",You did not have enough fuel to reach the planet and missed 2 rubies!,stim/image2.png,48,,,,,,,,,,,,,,,,,,,,,,,,,,,,5,6,0,2,0,,,"[""return""]",[12.023400000095307],[null],25,95,0,,,"[{""time"":592.7554000000954,""reactionTime"":1},{""time"":593.399100000143,""reactionTime"":1},{""time"":593.9718000001907,""reactionTime"":1},{""time"":594.5493000001907,""reactionTime"":0.19470000004764643},{""time"":595.5519000000953,""reactionTime"":0.40970000004767826},{""time"":596.1437000000477,""reactionTime"":1},{""time"":596.9209999999999,""reactionTime"":1},{""time"":597.111,""reactionTime"":0.7763999998569489},{""time"":598.0674000000954,""reactionTime"":1},{""time"":598.6624000000953,""reactionTime"":1},{""time"":599.2393000001907,""reactionTime"":1},{""time"":599.633100000143,""reactionTime"":2.136799999952359},{""time"":600.0359000000954,""reactionTime"":0.1905999999046344},{""time"":600.6334000000953,""reactionTime"":1},{""time"":601.4359000000953,""reactionTime"":1},{""time"":601.6247000000477,""reactionTime"":0.7905000000000655},{""time"":602.1991000001431,""reactionTime"":0.1924000000954038},{""time"":603.1795,""reactionTime"":1},{""time"":603.7518000001908,""reactionTime"":1},{""time"":604.331100000143,""reactionTime"":1.7350000000000136}]","[0.19470000004764643,0.40970000004767826,0.7763999998569489,2.136799999952359,0.1905999999046344,0.7905000000000655,0.1924000000954038,1.7350000000000136]","[1,1,1,1,1,1,1,1,1,0.19470000004764643,0.19470000004764643,0.19470000004764643,0.40970000004767826,0.40970000004767826,0.40970000004767826,1,1,1,1,0.8881999999284744,0.8881999999284744,0.7763999998569489,1,1,1,1,1,1,1,1,1.5683999999761795,2.136799999952359,1.1636999999284967,0.1905999999046344,0.1905999999046344,1,1,1,1,0.8952500000000327,0.8952500000000327,0.7905000000000655,0.1924000000954038,0.1924000000954038,0.1924000000954038,1,1,1,1,1,1,1.7350000000000136,1.7350000000000136]","[0,0,0,0,99.85120892155658,99.85120892155658,99.85120892155658,73.19280842558238,73.19280842558238,73.19280842558238,0,0,0,0,13.862368266773172,13.862368266773172,27.724736533546334,0,0,0,0,0,0,0,0,0,0,0,100,100,0,0,0,0,12.98822070675354,12.98822070675354,25.97644141350708,100,100,100,0,0,0,0,0,0,0,0]",1,0.1935,0.05,-0.5,0,23.46946683,0.1906,FALSE,0,0,0,0,1,,,,,,,,,,,,,,,,,,,
Please be patient as the study loads,66706a23c37c6099480f039d,66d895541319693e0a3a3141,66db1c8504a9fa4fe9ead5e6,2024-09-06_11h17.32.305,RewardEffortLearning_pilot7b,2023.1.3,Win32,6.540222368,,,,,,,,,,,,,,,,,,,,,,,,,,,,,,,,,,,,,,,,,,,,2,"You reached the planet, you get 2 rubies!",You did not have enough fuel to reach the planet and missed 2 rubies!,stim/image2.png,63,,,,,,,,,,,,,,,,,,,,,,,,,,,,6,6,0,4,0,,,,,,85,85,0,,,"[{""time"":609.4158000001908,""reactionTime"":1},{""time"":609.9779000000954,""reactionTime"":1},{""time"":610.5917000000477,""reactionTime"":1},{""time"":611.3867000000477,""reactionTime"":1},{""time"":611.9658000001907,""reactionTime"":1},{""time"":612.5382000000477,""reactionTime"":1.7438999998570353},{""time"":613.1125,""reactionTime"":0.19200000000000728},{""time"":613.8969999999999,""reactionTime"":1},{""time"":614.513,""reactionTime"":1.2096999998093452},{""time"":615.494100000143,""reactionTime"":0.41020000004766644},{""time"":616.066100000143,""reactionTime"":1},{""time"":616.6705,""reactionTime"":0.192899999856877},{""time"":617.4544999999999,""reactionTime"":1},{""time"":617.8358000001907,""reactionTime"":0.96550000000002},{""time"":618.4078000001907,""reactionTime"":1},{""time"":618.9784000000953,""reactionTime"":0.19040000009533742},{""time"":619.9555,""reactionTime"":1},{""time"":620.5546000001431,""reactionTime"":1},{""time"":620.9483000001907,""reactionTime"":1.5819000000952883}]","[1.7438999998570353,0.19200000000000728,1.2096999998093452,0.41020000004766644,0.192899999856877,0.96550000000002,0.19040000009533742,1.5819000000952883]","[1,1,1,1,1,1,1,1,1,1,1,1,1,1,1,1.7438999998570353,1.7438999998570353,1.7438999998570353,0.19200000000000728,0.19200000000000728,0.19200000000000728,1,1,1,1.2096999998093452,1.2096999998093452,1.2096999998093452,0.41020000004766644,0.41020000004766644,0.41020000004766644,1,1,1,0.192899999856877,0.192899999856877,0.192899999856877,1,1,0.98275000000001,0.96550000000002,0.96550000000002,1,1,1,0.19040000009533742,0.19040000009533742,0.19040000009533742,1,1,1,1,1,1.2909500000476442]","[0,0,0,0,0,0,0,0,0,0,0,0,99.82703235789376,99.82703235789376,99.82703235789376,0,0,0,0,0,0,72.86879168307905,72.86879168307905,72.86879168307905,0,0,0,99.71583889894099,99.71583889894099,99.71583889894099,0,0,2.131208302193921,4.26241660438783,4.26241660438783,0,0,0,100,100,100,0,0,0,0,0,0]",1,0.1906,0.05,-0.5,0,23.9976815,0.1904,FALSE,0,1,1,1,1,,,,,,,,,,,,,,,,,,,
Please be patient as the study loads,66706a23c37c6099480f039d,66d895541319693e0a3a3141,66db1c8504a9fa4fe9ead5e6,2024-09-06_11h17.32.305,RewardEffortLearning_pilot7b,2023.1.3,Win32,6.540222368,,,,,,,,,,,,,,,,,,,,,,,,,,,,,,,,,,,,,,,,,,,,0,"You reached the planet, but a space pirate already plundered all the rubies!",You did not have enough fuel to reach the planet and a space pirate already plundered all the rubies!,stim/None.png,50,,,,,,,,,,,,,,,,,,,,,,,,,,,,4,1,0,4,0,,,"[""return""]",[6.220899999856897],[null],50,25,0,,,"[{""time"":645.8443000001907,""reactionTime"":1},{""time"":646.4358000001907,""reactionTime"":1},{""time"":647,""reactionTime"":0.19100000000003092},{""time"":647.3745,""reactionTime"":0.18639999985691702},{""time"":648.3376000001431,""reactionTime"":0.5651000001430475},{""time"":649.432,""reactionTime"":1},{""time"":650.091600000143,""reactionTime"":1},{""time"":650.2975,""reactionTime"":1.5576999998093015},{""time"":650.9824000000954,""reactionTime"":1},{""time"":652.0322000000476,""reactionTime"":1},{""time"":652.4472000000477,""reactionTime"":1.03579999995236},{""time"":653.7054000000953,""reactionTime"":1},{""time"":653.955,""reactionTime"":0.8636999998093415},{""time"":654.5959000000954,""reactionTime"":1},{""time"":655.6995,""reactionTime"":1},{""time"":656.3359000000953,""reactionTime"":1},{""time"":656.571100000143,""reactionTime"":1.5642000000476628}]","[0.19100000000003092,0.18639999985691702,0.5651000001430475,1.5576999998093015,1.03579999995236,0.8636999998093415,1.5642000000476628]","[1,1,1,1,1,1,0.19100000000003092,0.19100000000003092,0.18869999992847397,0.18639999985691702,0.18639999985691702,0.5651000001430475,0.5651000001430475,0.5651000001430475,1,1,1,1,1.2788499999046508,1.2788499999046508,1.5576999998093015,1,1,1,1,1,1.01789999997618,1.03579999995236,1.03579999995236,1,0.9318499999046708,0.9318499999046708,0.8636999998093415,1,1,1,1,1,1,1,1.2821000000238314,1.2821000000238314]","[99.92588933982655,99.92588933982655,100,100,100,53.71788536415091,53.71788536415091,53.71788536415091,0,0,0,0,0,0,0,0,0,0,0,0,0,0,0,0,8.417737166916318,8.417737166916318,16.835474333832636,0,0,0,0,0,0,0,0,0]",1,0.1904,0.05,-0.5,0,19.29656621,0.1864,FALSE,0,2,2,2,1,,,,,,,,,,,,,,,,,,,
Please be patient as the study loads,66706a23c37c6099480f039d,66d895541319693e0a3a3141,66db1c8504a9fa4fe9ead5e6,2024-09-06_11h17.32.305,RewardEffortLearning_pilot7b,2023.1.3,Win32,6.540222368,,,,,,,,,,,,,,,,,,,,,,,,,,,,,,,,,,,,,,,,,,,,0,"You reached the planet, but a space pirate already plundered all the rubies!",You did not have enough fuel to reach the planet and a space pirate already plundered all the rubies!,stim/None.png,27,,,,,,,,,,,,,,,,,,,,,,,,,,,,5,5,0,4,0,,,,,,80,80,0,,,"[{""time"":661.6487000000477,""reactionTime"":1},{""time"":662.282600000143,""reactionTime"":1},{""time"":663.1116000001431,""reactionTime"":1},{""time"":663.685,""reactionTime"":1},{""time"":663.8865,""reactionTime"":1.4163999998569352},{""time"":664.2725,""reactionTime"":0.19629999995231628},{""time"":664.873,""reactionTime"":1},{""time"":665.4514000000953,""reactionTime"":0.38990000009528103},{""time"":666.0563000001907,""reactionTime"":0.2029000000953829},{""time"":666.4469000000954,""reactionTime"":0.1987000000477792},{""time"":667.4142000000477,""reactionTime"":0.5865000000000009},{""time"":667.9904000000954,""reactionTime"":1},{""time"":668.7628000001907,""reactionTime"":0.5832000000476683},{""time"":669.3493000001907,""reactionTime"":1},{""time"":669.9125,""reactionTime"":1},{""time"":670.2952000000477,""reactionTime"":0.19189999985690065},{""time"":670.8823000001908,""reactionTime"":1},{""time"":671.263100000143,""reactionTime"":0.1889000000953729},{""time"":672.0546000001431,""reactionTime"":1},{""time"":672.248100000143,""reactionTime"":0.7967000000477356}]","[1.4163999998569352,0.19629999995231628,0.38990000009528103,0.2029000000953829,0.1987000000477792,0.5865000000000009,0.5832000000476683,0.19189999985690065,0.1889000000953729,0.7967000000477356]","[1,1,1,1,1,1,1,1,1,1,1.2081999999284676,1.2081999999284676,0.8063499999046257,0.19629999995231628,0.19629999995231628,1,1,1,0.38990000009528103,0.38990000009528103,0.38990000009528103,0.2029000000953829,0.2029000000953829,0.20080000007158105,0.1987000000477792,0.1987000000477792,0.5865000000000009,0.5865000000000009,0.5865000000000009,1,1,1,0.5832000000476683,0.5832000000476683,0.5832000000476683,1,1,1,1,1,0.5959499999284503,0.19189999985690065,0.19189999985690065,1,1,0.5944500000476864,0.1889000000953729,0.1889000000953729,1,0.8983500000238678,0.8983500000238678,0.7967000000477356]","[0,0,0,0,0,0,0,23.801622426415705,98.78318582919638,98.78318582919638,0,0,0,74.98770892298725,74.98770892298725,74.98770892298725,97.97197637222664,97.97197637222664,98.23008846950202,98.48820056677741,98.48820056677741,50.82350048270394,50.82350048270394,50.82350048270394,0,0,0,51.2291051965378,51.2291051965378,51.2291051965378,0,0,0,0,0,49.66199606692378,99.32399213384755,99.32399213384755,0,0,49.846361833946894,99.69272366789377,99.69272366789377,0,12.493854468812149,12.493854468812149,24.987708937624298]",1,0.1864,0.05,-0.5,0,38.10971463,0.1889,TRUE,0,3,3,3,1,,,,,,,,,,,,,,,,,,,
Please be patient as the study loads,66706a23c37c6099480f039d,66d895541319693e0a3a3141,66db1c8504a9fa4fe9ead5e6,2024-09-06_11h17.32.305,RewardEffortLearning_pilot7b,2023.1.3,Win32,6.540222368,,,,,,,,,,,,,,,,,,,,,,,,,,,,,,,,,,,,,,,,,,,,1,"You reached the planet, you get 1 ruby!",You did not have enough fuel to reach the planet and missed 1 ruby!,stim/image1.png,24,,,,,,,,,,,,,,,,,,,,,,,,,,,,3,5,0,5,0,,,"[""return""]",[8.594600000143032],[null],55,85,0,,,"[{""time"":696.4954000000954,""reactionTime"":1},{""time"":697.056600000143,""reactionTime"":1},{""time"":697.8217000000477,""reactionTime"":0.38139999985696704},{""time"":698.6169000000954,""reactionTime"":1},{""time"":699.018100000143,""reactionTime"":0.997900000095342},{""time"":699.5869000000954,""reactionTime"":1},{""time"":700.3358000001907,""reactionTime"":1},{""time"":700.5269000000953,""reactionTime"":0.7534000000953256},{""time"":701.4922000000477,""reactionTime"":0.5737000000476655},{""time"":702.081100000143,""reactionTime"":1},{""time"":702.667600000143,""reactionTime"":1},{""time"":703.0782000000477,""reactionTime"":0.21299999999996544},{""time"":703.9505,""reactionTime"":0.23879999995233447},{""time"":704.5335,""reactionTime"":0.3801999998092924},{""time"":705.1185,""reactionTime"":1},{""time"":705.6913000001907,""reactionTime"":1},{""time"":706.4726000001431,""reactionTime"":1},{""time"":706.671600000143,""reactionTime"":0.7846000001430866},{""time"":707.2499000000954,""reactionTime"":1}]","[0.38139999985696704,0.997900000095342,0.7534000000953256,0.5737000000476655,0.21299999999996544,0.23879999995233447,0.3801999998092924,0.7846000001430866]","[1,1,1,1,1,1,0.38139999985696704,0.38139999985696704,0.38139999985696704,1,1,0.998950000047671,0.997900000095342,0.997900000095342,1,1,1,1,0.8767000000476628,0.8767000000476628,0.7534000000953256,0.5737000000476655,0.5737000000476655,0.5737000000476655,1,1,1,1,1,0.6064999999999827,0.21299999999996544,0.21299999999996544,0.23879999995233447,0.23879999995233447,0.23879999995233447,0.3801999998092924,0.3801999998092924,0.3801999998092924,1,1,1,1,1,1,1,0.8923000000715433,0.8923000000715433,0.7846000001430866,1,1]","[76.03244838178999,76.03244838178999,76.03244838178999,0,0,0.12905604131567827,0.25811208263135654,0.25811208263135654,0,0,0,0,15.154867248113712,15.154867248113712,30.309734496227424,52.39675514716859,52.39675514716859,52.39675514716859,0,0,0,0,0,48.3652900603263,96.7305801206526,96.7305801206526,93.5594886816369,93.5594886816369,93.5594886816369,76.1799410129925,76.1799410129925,76.1799410129925,0,0,0,0,0,0,0,13.237463115722237,13.237463115722237,26.474926231444474,0,0]",1,0.1864,0.05,-0.5,1,28.42152163,0.213,TRUE,0,4,4,4,1,,,,,,,,,,,,,,,,,,,
Please be patient as the study loads,66706a23c37c6099480f039d,66d895541319693e0a3a3141,66db1c8504a9fa4fe9ead5e6,2024-09-06_11h17.32.305,RewardEffortLearning_pilot7b,2023.1.3,Win32,6.540222368,,,,,,,,,,,,,,,,,,,,,,,,,,,,,,,,,,,,,,,,,,,,0,"You reached the planet, but a space pirate already plundered all the rubies!",You did not have enough fuel to reach the planet and a space pirate already plundered all the rubies!,stim/None.png,22,,,,,,,,,,,,,,,,,,,,,,,,,,,,3,3,0,5,0,,,,,,60,60,0,,,"[{""time"":712.4014000000954,""reactionTime"":1},{""time"":713.3408000001907,""reactionTime"":1},{""time"":713.9291000001431,""reactionTime"":1},{""time"":714.3222000000477,""reactionTime"":1.5457000000477592},{""time"":715.2712000000477,""reactionTime"":0.3740999999046153},{""time"":716.4329000000954,""reactionTime"":1},{""time"":716.6208000001907,""reactionTime"":0.7578000001907412},{""time"":717.8613000001907,""reactionTime"":0.632600000143043},{""time"":718.8824000000953,""reactionTime"":0.6147000000477192},{""time"":719.492600000143,""reactionTime"":1},{""time"":720.2946000001431,""reactionTime"":0.608799999952339},{""time"":720.9057000000477,""reactionTime"":1},{""time"":721.5482000000477,""reactionTime"":0.43279999995229446},{""time"":722.1323000001908,""reactionTime"":1},{""time"":722.8965,""reactionTime"":0.57650000000001}]","[1.5457000000477592,0.3740999999046153,0.7578000001907412,0.632600000143043,0.6147000000477192,0.608799999952339,0.43279999995229446,0.57650000000001]","[1,1,1,1,1,1,1,1,1.2728500000238796,1.5457000000477592,1.5457000000477592,0.3740999999046153,0.3740999999046153,0.3740999999046153,1,0.8789000000953706,0.8789000000953706,0.7578000001907412,0.632600000143043,0.632600000143043,0.632600000143043,0.6147000000477192,0.6147000000477192,0.6147000000477192,1,1,1,0.608799999952339,0.608799999952339,0.608799999952339,1,1,1,0.43279999995229446,0.43279999995229446,0.43279999995229446,1,1,1,0.57650000000001]","[0,0,0,0,0,0,0,76.92969518010219,76.92969518010219,76.92969518010219,0,14.88446409578813,14.88446409578813,29.768928191576272,45.15732544153694,45.15732544153694,45.15732544153694,47.35742378128324,47.35742378128324,47.35742378128324,0,0,0,48.082595867608525,48.082595867608525,48.082595867608525,0,0,0,69.71484758455698,69.71484758455698,69.71484758455698,0,0,0,52.05260569389276]",1,0.1864,0.05,-0.5,1,27.03655905,0.3741,TRUE,0,5,5,5,1,,,,,,,,,,,,,,,,,,,
Please be patient as the study loads,66706a23c37c6099480f039d,66d895541319693e0a3a3141,66db1c8504a9fa4fe9ead5e6,2024-09-06_11h17.32.305,RewardEffortLearning_pilot7b,2023.1.3,Win32,6.540222368,,,,,,,,,,,,,,,,,,,,,,,,,,,,,,,,,,,,,,,,,,,,0,"You reached the planet, but a space pirate already plundered all the rubies!",You did not have enough fuel to reach the planet and a space pirate already plundered all the rubies!,stim/None.png,36,,,,,,,,,,,,,,,,,,,,,,,,,,,,3,6,0,5,0,,,"[""return""]",[2.9857000000477],[null],40,20,0,,,"[{""time"":739.3001000001431,""reactionTime"":1},{""time"":739.8571000001431,""reactionTime"":1},{""time"":740.435600000143,""reactionTime"":0.198299999952269},{""time"":741.206100000143,""reactionTime"":0.3736000001430284},{""time"":741.6031000001431,""reactionTime"":0.19029999995234448},{""time"":742.18,""reactionTime"":1},{""time"":742.5602000000476,""reactionTime"":0.19220000004770554},{""time"":742.9722000000477,""reactionTime"":0.20779999995227172},{""time"":743.3533000001908,""reactionTime"":0.1872000000477101},{""time"":743.761,""reactionTime"":0.2055000000000291},{""time"":744.1319000000954,""reactionTime"":0.1855000000000473},{""time"":744.7128000001908,""reactionTime"":1},{""time"":745.1054000000954,""reactionTime"":0.2052000000477392},{""time"":745.495,""reactionTime"":0.19989999985693885},{""time"":746.0791000001431,""reactionTime"":1},{""time"":746.460100000143,""reactionTime"":0.1924000000954038},{""time"":747.0568000001907,""reactionTime"":0.20390000009535925},{""time"":747.6442000000477,""reactionTime"":0.39889999985700797},{""time"":748.4645,""reactionTime"":0.1985999999046726},{""time"":749.2362000000477,""reactionTime"":0.39829999995231447},{""time"":750.0296000001431,""reactionTime"":0.19620000004772464}]","[0.198299999952269,0.3736000001430284,0.19029999995234448,0.19220000004770554,0.20779999995227172,0.1872000000477101,0.2055000000000291,0.1855000000000473,0.2052000000477392,0.19989999985693885,0.1924000000954038,0.20390000009535925,0.39889999985700797,0.1985999999046726,0.39829999995231447,0.19620000004772464]","[1,1,1,1,1,1,0.198299999952269,0.198299999952269,0.198299999952269,0.3736000001430284,0.3736000001430284,0.28195000004768644,0.19029999995234448,0.19029999995234448,1,1,0.5961000000238528,0.19220000004770554,0.19999999999998863,0.20779999995227172,0.1974999999999909,0.1872000000477101,0.1963500000238696,0.2055000000000291,0.1955000000000382,0.1855000000000473,0.1855000000000473,1,1,0.6026000000238696,0.2052000000477392,0.20254999995233902,0.19989999985693885,0.19989999985693885,1,1,0.5962000000477019,0.1924000000954038,0.1924000000954038,0.20390000009535925,0.20390000009535925,0.20390000009535925,0.39889999985700797,0.39889999985700797,0.39889999985700797,0.1985999999046726,0.1985999999046726,0.1985999999046726,0.39829999995231447,0.39829999995231447,0.39829999995231447,0.19620000004772464,0.19620000004772464,0.19620000004772464]","[98.5373647869642,98.5373647869642,98.5373647869642,76.9911504113582,76.9911504113582,88.25589968363255,99.52064895590689,99.52064895590689,0,0,49.64355947702997,99.28711895405992,98.32841689519667,97.36971483633343,98.63569319799387,99.90167155965433,98.77704029434578,97.65240902903723,98.88151424022605,100,100,0,0,48.844641089754425,97.68928217950887,98.01499507219987,98.3407079648909,98.3407079648909,0,0,49.63126842198675,99.2625368439735,99.2625368439735,97.84906585111055,97.84906585111055,97.84906585111055,73.88151426220257,73.88151426220257,73.88151426220257,98.50049163647861,98.50049163647861,98.50049163647861,73.9552605631598,73.9552605631598,73.9552605631598,98.79547686958159,98.79547686958159,98.79547686958159]",1,0.1864,0.05,-0.5,1,79.03543407,0.1855,TRUE,0,6,6,6,1,,,,,,,,,,,,,,,,,,,
Please be patient as the study loads,66706a23c37c6099480f039d,66d895541319693e0a3a3141,66db1c8504a9fa4fe9ead5e6,2024-09-06_11h17.32.305,RewardEffortLearning_pilot7b,2023.1.3,Win32,6.540222368,,,,,,,,,,,,,,,,,,,,,,,,,,,,,,,,,,,,,,,,,,,,4,"You reached the planet, you get 4 rubies!",You did not have enough fuel to reach the planet and missed 4 rubies!,stim/image4.png,51,,,,,,,,,,,,,,,,,,,,,,,,,,,,4,4,1,9,0,,,,,,20,20,0,,,"[{""time"":755.2473000001908,""reactionTime"":1},{""time"":755.8424000000954,""reactionTime"":1},{""time"":756.6237000000476,""reactionTime"":0.2039999999999509},{""time"":757.593,""reactionTime"":0.39449999999999363},{""time"":757.9684000000954,""reactionTime"":0.18729999995230173},{""time"":758.7755,""reactionTime"":0.19109999990462256},{""time"":759.336600000143,""reactionTime"":1},{""time"":759.9113000001907,""reactionTime"":1},{""time"":760.6774000000953,""reactionTime"":0.3824000000953447},{""time"":761.2362000000477,""reactionTime"":1},{""time"":761.8333000001908,""reactionTime"":1},{""time"":762.3979000000953,""reactionTime"":1},{""time"":763.2158000001907,""reactionTime"":0.2023000001906894},{""time"":763.8842000000477,""reactionTime"":0.21050000000002456},{""time"":765.0494000000954,""reactionTime"":1},{""time"":765.6563000001908,""reactionTime"":1},{""time"":766.241,""reactionTime"":1}]","[0.2039999999999509,0.39449999999999363,0.18729999995230173,0.19109999990462256,0.3824000000953447,0.2023000001906894,0.21050000000002456]","[1,1,1,1,1,1,0.2039999999999509,0.2039999999999509,0.2039999999999509,0.39449999999999363,0.39449999999999363,0.2908999999761477,0.18729999995230173,0.18729999995230173,0.19109999990462256,0.19109999990462256,0.19109999990462256,1,1,1,1,1,1,0.3824000000953447,0.3824000000953447,0.3824000000953447,1,1,1,1,1,1,1,1,1,0.2023000001906894,0.2023000001906894,0.2023000001906894,0.21050000000002456,0.21050000000002456,0.21050000000002456,1,1,1,1,1,1,1,1]","[97.72866789442546,97.72866789442546,97.72866789442546,74.34008594230099,74.34008594230099,87.0595457365124,99.77900553072381,99.77900553072381,99.31246164461932,99.31246164461932,99.31246164461932,0,0,0,0,0,0,75.8256599023562,75.8256599023562,75.8256599023562,0,0,0,0,0,0,0,0,0,97.93738487530473,97.93738487530473,97.93738487530473,96.93063228975093,96.93063228975093,96.93063228975093,0,0,0,0,0,0,0,0]",1,0.1855,0.05,-0.5,1,42.75586392,0.1873,FALSE,0,7,7,7,1,,,,,,,,,,,,,,,,,,,
Please be patient as the study loads,66706a23c37c6099480f039d,66d895541319693e0a3a3141,66db1c8504a9fa4fe9ead5e6,2024-09-06_11h17.32.305,RewardEffortLearning_pilot7b,2023.1.3,Win32,6.540222368,,,,,,,,,,,,,,,,,,,,,,,,,,,,,,,,,,,,,,,,,,,,0,"You reached the planet, but a space pirate already plundered all the rubies!",You did not have enough fuel to reach the planet and a space pirate already plundered all the rubies!,stim/None.png,65,,,,,,,,,,,,,,,,,,,,,,,,,,,,4,1,1,9,0,,,"[""return""]",[2.378699999809328],[null],50,60,0,,,"[{""time"":789.055,""reactionTime"":1},{""time"":789.6879000000954,""reactionTime"":1},{""time"":790.5204000000954,""reactionTime"":1},{""time"":790.7098000001907,""reactionTime"":0.7941000001430893},{""time"":791.4636000001431,""reactionTime"":1},{""time"":791.863600000143,""reactionTime"":0.9602000000477346},{""time"":792.242,""reactionTime"":0.18759999990459164},{""time"":792.8255,""reactionTime"":1},{""time"":793.4254000000954,""reactionTime"":1},{""time"":794.5582000000477,""reactionTime"":0.5678999998569907},{""time"":795.1247000000477,""reactionTime"":1},{""time"":796.2863000001907,""reactionTime"":0.5987000000477565},{""time"":796.864,""reactionTime"":1},{""time"":797.4567000000477,""reactionTime"":1},{""time"":798.2427000000476,""reactionTime"":0.6017999999522772},{""time"":798.8083000001907,""reactionTime"":1},{""time"":799.3722000000477,""reactionTime"":1}]","[0.7941000001430893,0.9602000000477346,0.18759999990459164,0.5678999998569907,0.5987000000477565,0.6017999999522772]","[1,1,1,1,1,1,1,0.8970500000715447,0.8970500000715447,0.7941000001430893,1,1,0.9801000000238673,0.9602000000477346,0.5738999999761631,0.18759999990459164,0.18759999990459164,1,1,1,1,1,1,0.5678999998569907,0.5678999998569907,0.5678999998569907,1,1,1,0.5987000000477565,0.5987000000477565,0.5987000000477565,1,1,1,1,1,1,0.6017999999522772,0.6017999999522772,0.6017999999522772,1,1,1,1,1,1]","[0,0,12.639656222033313,12.639656222033313,25.279312444066615,0,0,2.4432166944301836,4.886433388860367,52.31430325645937,99.74217312405838,99.74217312405838,0,0,0,0,0,0,53.05095152155119,53.05095152155119,53.05095152155119,0,0,0,49.26949047909967,49.26949047909967,49.26949047909967,0,0,0,0,0,0,48.888888894750885,48.888888894750885,48.888888894750885,0,0,0,0,0,0]",1,0.1855,0.05,-0.5,1,18.17416469,0.1876,FALSE,0,8,8,8,1,,,,,,,,,,,,,,,,,,,
Please be patient as the study loads,66706a23c37c6099480f039d,66d895541319693e0a3a3141,66db1c8504a9fa4fe9ead5e6,2024-09-06_11h17.32.305,RewardEffortLearning_pilot7b,2023.1.3,Win32,6.540222368,,,,,,,,,,,,,,,,,,,,,,,,,,,,,,,,,,,,,,,,,,,,0,"You reached the planet, but a space pirate already plundered all the rubies!",You did not have enough fuel to reach the planet and a space pirate already plundered all the rubies!,stim/None.png,63,,,,,,,,,,,,,,,,,,,,,,,,,,,,5,5,1,9,0,,,,,,60,60,0,,,"[{""time"":804.883600000143,""reactionTime"":1},{""time"":805.8134000000954,""reactionTime"":1},{""time"":806.2343000001907,""reactionTime"":0.9873000001907712},{""time"":806.8088000001907,""reactionTime"":0.3841000001430075},{""time"":807.404100000143,""reactionTime"":1},{""time"":808.0344000000954,""reactionTime"":0.43770000004769827},{""time"":808.657100000143,""reactionTime"":0.19620000004772464},{""time"":809.316100000143,""reactionTime"":0.2034999999999627},{""time"":810.4605,""reactionTime"":1},{""time"":810.648100000143,""reactionTime"":0.7611000001430739},{""time"":811.8012000000476,""reactionTime"":0.5727999999522808},{""time"":812.3599000000953,""reactionTime"":1},{""time"":812.9339000000954,""reactionTime"":1},{""time"":813.6868000001907,""reactionTime"":1},{""time"":814.0622000000477,""reactionTime"":0.9392999999523681},{""time"":815.061,""reactionTime"":0.5955999999047208}]","[0.9873000001907712,0.3841000001430075,0.43770000004769827,0.19620000004772464,0.2034999999999627,0.7611000001430739,0.5727999999522808,0.9392999999523681,0.5955999999047208]","[1,1,1,1,1,0.9936500000953856,0.9873000001907712,0.9873000001907712,0.3841000001430075,0.3841000001430075,0.3841000001430075,1,1,1,0.43770000004769827,0.43770000004769827,0.43770000004769827,0.19620000004772464,0.19620000004772464,0.19620000004772464,0.2034999999999627,0.2034999999999627,0.2034999999999627,1,0.8805500000715369,0.8805500000715369,0.7611000001430739,0.5727999999522808,0.5727999999522808,0.5727999999522808,1,1,1,1,1,1,1,1,0.9696499999761841,0.9392999999523681,0.9392999999523681,0.5955999999047208,0.5955999999047208]","[0,0.7796193866930312,1.5592387733860624,1.5592387733860624,75.61694289220728,75.61694289220728,75.61694289220728,0,0,0,69.03621853312885,69.03621853312885,69.03621853312885,98.68631061415863,98.68631061415863,98.68631061415863,97.79005524862903,97.79005524862903,97.79005524862903,0,14.665438910800487,14.665438910800487,29.330877821600975,52.4493554386426,52.4493554386426,52.4493554386426,0,0,0,0,0,0,0,0,3.7262124031697597,7.452424806339519,7.452424806339519,49.650092092732066,49.650092092732066]",1,0.1855,0.05,-0.5,1,34.90327556,0.1962,FALSE,0,9,9,9,1,,,,,,,,,,,,,,,,,,,
Please be patient as the study loads,66706a23c37c6099480f039d,66d895541319693e0a3a3141,66db1c8504a9fa4fe9ead5e6,2024-09-06_11h17.32.305,RewardEffortLearning_pilot7b,2023.1.3,Win32,6.540222368,,,,,,,,,,,,,,,,,,,,,,,,,,,,,,,,,,,,,,,,,,,,5,"You reached the planet, you get 5 rubies!",You did not have enough fuel to reach the planet and missed 5 rubies!,stim/image5.png,69,,,,,,,,,,,,,,,,,,,,,,,,,,,,2,2,1,14,0,,,"[""return"",""return""]","[0.8793999998570143,5.073299999952383]","[null,null]",75,95,0,,,"[{""time"":834.2625,""reactionTime"":1},{""time"":834.9274000000953,""reactionTime"":1},{""time"":835.3749000000954,""reactionTime"":0.21870000004776102},{""time"":835.9489000000954,""reactionTime"":1},{""time"":836.5284000000953,""reactionTime"":1},{""time"":837.0971000001431,""reactionTime"":1},{""time"":837.6579000000953,""reactionTime"":1},{""time"":838.2234000000954,""reactionTime"":1},{""time"":838.9935,""reactionTime"":1},{""time"":839.5668000001907,""reactionTime"":1.1504000000953738},{""time"":840.1304000000954,""reactionTime"":1},{""time"":841.317100000143,""reactionTime"":1},{""time"":841.5085,""reactionTime"":0.7753999998569725},{""time"":842.1092000000476,""reactionTime"":1},{""time"":842.8713000001907,""reactionTime"":0.574400000095352},{""time"":843.4593000001908,""reactionTime"":1},{""time"":844.4559000000953,""reactionTime"":0.4064000000953456},{""time"":845.0214000000954,""reactionTime"":1}]","[0.21870000004776102,1.1504000000953738,0.7753999998569725,0.574400000095352,0.4064000000953456]","[1,1,1,1,1,0.6093500000238805,0.21870000004776102,0.21870000004776102,1,1,1,1,1,1,1,1,1,1,1,1,1,1,1,1,1,1,1.1504000000953738,1.1504000000953738,1.1504000000953738,1,1,1,1,0.8876999999284862,0.8876999999284862,0.7753999998569725,1,1,1,0.574400000095352,0.574400000095352,0.574400000095352,1,1,1,0.4064000000953456,0.4064000000953456,0.4064000000953456,1,1]","[47.96193983746374,95.92387967492748,95.92387967492748,0,0,0,0,0,0,0,0,0,0,0,0,0,0,0,0,0,0,0,0,0,0,0,0,0,13.787599763231462,13.787599763231462,27.575199526462924,0,0,0,52.252915887620965,52.252915887620965,52.252915887620965,0,0,0,72.87906690051429,72.87906690051429,72.87906690051429,0,0]",1,0.1855,0.05,-0.5,1,14.89680104,0.2187,FALSE,0,10,10,10,1,,,,,,,,,,,,,,,,,,,
Please be patient as the study loads,66706a23c37c6099480f039d,66d895541319693e0a3a3141,66db1c8504a9fa4fe9ead5e6,2024-09-06_11h17.32.305,RewardEffortLearning_pilot7b,2023.1.3,Win32,6.540222368,,,,,,,,,,,,,,,,,,,,,,,,,,,,,,,,,,,,,,,,,,,,0,"You reached the planet, but a space pirate already plundered all the rubies!",You did not have enough fuel to reach the planet and a space pirate already plundered all the rubies!,stim/None.png,76,,,,,,,,,,,,,,,,,,,,,,,,,,,,4,4,1,14,0,,,,,,20,20,0,,,"[{""time"":850.1074000000954,""reactionTime"":1},{""time"":850.683100000143,""reactionTime"":0.1929000000952783},{""time"":851.8276000001431,""reactionTime"":1},{""time"":852.4022000000476,""reactionTime"":1},{""time"":852.9952000000477,""reactionTime"":1},{""time"":853.1835,""reactionTime"":1.9272999999523108},{""time"":853.574600000143,""reactionTime"":0.1969000000954111},{""time"":854.3512000000477,""reactionTime"":0.19259999990470078},{""time"":854.936,""reactionTime"":0.1945999999046535},{""time"":855.8982000000477,""reactionTime"":0.3925000000000409},{""time"":856.8584999999999,""reactionTime"":0.5812999999523072},{""time"":857.6506000001431,""reactionTime"":1},{""time"":857.8368000001907,""reactionTime"":0.7837000000477019},{""time"":858.63,""reactionTime"":0.591599999904588},{""time"":859.5741000001431,""reactionTime"":0.3702000000477028},{""time"":860.3414000000954,""reactionTime"":0.3950000000000955}]","[0.1929000000952783,1.9272999999523108,0.1969000000954111,0.19259999990470078,0.1945999999046535,0.3925000000000409,0.5812999999523072,0.7837000000477019,0.591599999904588,0.3702000000477028,0.3950000000000955]","[1,1,1,0.1929000000952783,0.1929000000952783,0.1929000000952783,1,1,1,1,1,1,1,1.4636499999761554,1.4636499999761554,1.062100000023861,0.1969000000954111,0.1969000000954111,0.19259999990470078,0.19259999990470078,0.19259999990470078,0.1945999999046535,0.1945999999046535,0.1945999999046535,0.3925000000000409,0.3925000000000409,0.3925000000000409,0.5812999999523072,0.5812999999523072,0.5812999999523072,1,0.891850000023851,0.891850000023851,0.7837000000477019,0.591599999904588,0.591599999904588,0.591599999904588,0.3702000000477028,0.3702000000477028,0.3702000000477028,0.3950000000000955,0.3950000000000955]","[0,0,0,0,0,0,0,0,0,0,98.60036831241689,98.60036831241689,99.12829958199461,99.12829958199461,99.12829958199461,98.88275016518027,98.88275016518027,98.88275016518027,74.58563535911533,74.58563535911533,74.58563535911533,51.40577041715373,51.40577041715373,51.40577041715373,0,13.278084711621286,13.278084711621286,26.556169423242558,50.14119092638867,50.14119092638867,50.14119092638867,77.32351135080832,77.32351135080832,77.32351135080832,74.27869858808344,74.27869858808344]",1,0.1855,0.05,-0.5,1,48.7019985,0.1926,FALSE,0,11,11,11,1,,,,,,,,,,,,,,,,,,,
Please be patient as the study loads,66706a23c37c6099480f039d,66d895541319693e0a3a3141,66db1c8504a9fa4fe9ead5e6,2024-09-06_11h17.32.305,RewardEffortLearning_pilot7b,2023.1.3,Win32,6.540222368,,,,,,,,,,,,,,,,,,,,,,,,,,,,,,,,,,,,,,,,,,,,0,"You reached the planet, but a space pirate already plundered all the rubies!",You did not have enough fuel to reach the planet and a space pirate already plundered all the rubies!,stim/None.png,90,,,,,,,,,,,,,,,,,,,,,,,,,,,,3,5,1,14,0,,,"[""return""]",[1.5436999998092915],[null],65,45,0,,,"[{""time"":874.5404000000954,""reactionTime"":1},{""time"":875.1295,""reactionTime"":1},{""time"":875.709,""reactionTime"":0.18789999985688155},{""time"":876.276600000143,""reactionTime"":1},{""time"":877.4051000001431,""reactionTime"":1},{""time"":877.9727000000477,""reactionTime"":1},{""time"":878.5463000001907,""reactionTime"":1},{""time"":878.921600000143,""reactionTime"":2.074299999952359},{""time"":879.8557000000477,""reactionTime"":0.5590999999046744},{""time"":880.6059000000954,""reactionTime"":0.3730000000000473},{""time"":881.1672000000477,""reactionTime"":1},{""time"":881.9215,""reactionTime"":0.5661999998093279},{""time"":882.928100000143,""reactionTime"":0.6219000000953656},{""time"":884.1237000000476,""reactionTime"":1},{""time"":884.3274000000954,""reactionTime"":0.7924000000954265},{""time"":885.456100000143,""reactionTime"":0.5627999999522899}]","[0.18789999985688155,2.074299999952359,0.5590999999046744,0.3730000000000473,0.5661999998093279,0.6219000000953656,0.7924000000954265,0.5627999999522899]","[1,1,1,1,1,1,0.18789999985688155,0.18789999985688155,0.18789999985688155,1,1,1,1,1,1,1,1,1,1,1,1.5371499999761795,2.074299999952359,2.074299999952359,0.5590999999046744,0.5590999999046744,0.5590999999046744,0.3730000000000473,0.3730000000000473,0.3730000000000473,1,1,1,0.5661999998093279,0.5661999998093279,0.5661999998093279,0.6219000000953656,0.6219000000953656,0.6219000000953656,1,0.8962000000477133,0.8962000000477133,0.7924000000954265,0.5627999999522899,0.5627999999522899]","[99.70534071739296,99.70534071739296,99.70534071739296,0,0,0,0,0,0,0,0,0,0,0,0,0,0,54.1313689497055,54.1313689497055,54.1313689497055,76.97974217311099,76.97974217311099,76.97974217311099,0,0,0,53.2596685317001,53.2596685317001,53.2596685317001,46.42111723814074,46.42111723814074,46.42111723814074,0,12.744014727107766,12.744014727107766,25.488029454215532,53.677102522742224,53.677102522742224]",1,0.1855,0.05,-0.5,1,30.25847307,0.1879,FALSE,0,12,12,12,1,,,,,,,,,,,,,,,,,,,
Please be patient as the study loads,66706a23c37c6099480f039d,66d895541319693e0a3a3141,66db1c8504a9fa4fe9ead5e6,2024-09-06_11h17.32.305,RewardEffortLearning_pilot7b,2023.1.3,Win32,6.540222368,,,,,,,,,,,,,,,,,,,,,,,,,,,,,,,,,,,,,,,,,,,,5,"You reached the planet, you get 5 rubies!",You did not have enough fuel to reach the planet and missed 5 rubies!,stim/image5.png,85,,,,,,,,,,,,,,,,,,,,,,,,,,,,2,2,1,19,0,,,,,,5,5,0,,,"[{""time"":890.5022000000477,""reactionTime"":1},{""time"":890.8659000000954,""reactionTime"":0.18559999990463893},{""time"":891.8224000000954,""reactionTime"":0.37920000004771737},{""time"":892.9842000000476,""reactionTime"":0.570099999904528},{""time"":893.9279000000954,""reactionTime"":0.5714000000954229},{""time"":894.9042000000477,""reactionTime"":0.38339999985691975},{""time"":895.676,""reactionTime"":0.3852999999523945},{""time"":896.8344000000953,""reactionTime"":0.6012000000476974},{""time"":898.0742000000477,""reactionTime"":1},{""time"":898.2648000001907,""reactionTime"":0.7652000000476846},{""time"":899.2149000000953,""reactionTime"":0.5752000000476301},{""time"":900.201,""reactionTime"":0.5925000000000864}]","[0.18559999990463893,0.37920000004771737,0.570099999904528,0.5714000000954229,0.38339999985691975,0.3852999999523945,0.6012000000476974,0.7652000000476846,0.5752000000476301,0.5925000000000864]","[1,1,0.5927999999523195,0.18559999990463893,0.18559999990463893,0.37920000004771737,0.37920000004771737,0.37920000004771737,0.570099999904528,0.570099999904528,0.570099999904528,0.5714000000954229,0.5714000000954229,0.5714000000954229,0.38339999985691975,0.38339999985691975,0.38339999985691975,0.3852999999523945,0.3852999999523945,0.3852999999523945,0.6012000000476974,0.6012000000476974,0.6012000000476974,1,0.8826000000238423,0.8826000000238423,0.7652000000476846,0.5752000000476301,0.5752000000476301,0.5752000000476301,0.5925000000000864,0.5925000000000864,0.5925000000000864]","[76.21853897511586,76.21853897511586,76.21853897511586,52.78084715721265,52.78084715721265,52.78084715721265,52.62124001284248,52.62124001284248,52.62124001284248,75.70288522321866,75.70288522321866,75.70288522321866,75.46961326551764,75.46961326551764,75.46961326551764,48.96255370808175,48.96255370808175,48.96255370808175,0,14.413750764415534,14.413750764415534,28.827501528831068,52.15469612675194,52.15469612675194,52.15469612675194,50.0306936770948,50.0306936770948,50.0306936770948]",1,0.1855,0.05,-0.5,1,53.90993598,0.1856,FALSE,0,13,13,13,1,,,,,,,,,,,,,,,,,,,
Please be patient as the study loads,66706a23c37c6099480f039d,66d895541319693e0a3a3141,66db1c8504a9fa4fe9ead5e6,2024-09-06_11h17.32.305,RewardEffortLearning_pilot7b,2023.1.3,Win32,6.540222368,,,,,,,,,,,,,,,,,,,,,,,,,,,,,,,,,,,,,,,,,,,,5,"You reached the planet, you get 5 rubies!",You did not have enough fuel to reach the planet and missed 5 rubies!,stim/image5.png,86,,,,,,,,,,,,,,,,,,,,,,,,,,,,3,7,1,24,0,,,"[""return""]",[3.384099999904606],[null],70,75,0,,,"[{""time"":915.1949000000953,""reactionTime"":1},{""time"":915.7898000001908,""reactionTime"":1},{""time"":916.3623000001908,""reactionTime"":0.19840000009537562},{""time"":917.1225,""reactionTime"":1},{""time"":917.3109000000953,""reactionTime"":0.7590000000000146},{""time"":917.879100000143,""reactionTime"":1},{""time"":918.4579000000954,""reactionTime"":0.39049999999997453},{""time"":919.2098000001907,""reactionTime"":0.1861000001430284},{""time"":919.612,""reactionTime"":0.21069999980920784},{""time"":920.1929000000954,""reactionTime"":0.18500000000005912},{""time"":920.782100000143,""reactionTime"":0.2115000000000009},{""time"":921.3567000000477,""reactionTime"":0.20450000000005275},{""time"":921.9448000001908,""reactionTime"":0.20270000004768463},{""time"":922.7039000000954,""reactionTime"":0.3747000000477101},{""time"":923.2655,""reactionTime"":0.37119999980927787},{""time"":923.8379000000954,""reactionTime"":0.3745000000000118},{""time"":924.4251000001431,""reactionTime"":0.387900000095442},{""time"":925.178,""reactionTime"":0.3704999999999927},{""time"":925.7649000000954,""reactionTime"":0.3955999999046753}]","[0.19840000009537562,0.7590000000000146,0.39049999999997453,0.1861000001430284,0.21069999980920784,0.18500000000005912,0.2115000000000009,0.20450000000005275,0.20270000004768463,0.3747000000477101,0.37119999980927787,0.3745000000000118,0.387900000095442,0.3704999999999927,0.3955999999046753]","[1,1,1,1,1,1,0.19840000009537562,0.19840000009537562,0.19840000009537562,1,0.8795000000000073,0.8795000000000073,0.7590000000000146,1,1,1,0.39049999999997453,0.39049999999997453,0.39049999999997453,0.1861000001430284,0.1861000001430284,0.19839999997611812,0.21069999980920784,0.21069999980920784,0.18500000000005912,0.18500000000005912,0.18500000000005912,0.2115000000000009,0.2115000000000009,0.2115000000000009,0.20450000000005275,0.20450000000005275,0.20450000000005275,0.20270000004768463,0.20270000004768463,0.20270000004768463,0.3747000000477101,0.3747000000477101,0.3747000000477101,0.37119999980927787,0.37119999980927787,0.37119999980927787,0.3745000000000118,0.3745000000000118,0.3745000000000118,0.387900000095442,0.387900000095442,0.387900000095442,0.3704999999999927,0.3704999999999927,0.3704999999999927,0.3955999999046753,0.3955999999046753,0.3955999999046753]","[98.41620624980612,98.41620624980612,98.41620624980612,0,14.794352363413099,14.794352363413099,29.588704726826208,0,0,0,74.83118477594363,74.83118477594363,74.83118477594363,99.92633515739949,99.92633515739949,98.41620626444794,96.90607737149638,96.90607737149638,100,100,100,96.80785758134375,96.80785758134375,96.80785758134375,97.66728054020791,97.66728054020791,97.66728054020791,97.88827500949806,97.88827500949806,97.88827500949806,76.77102516296209,76.77102516296209,76.77102516296209,77.2007366716708,77.2007366716708,77.2007366716708,76.79558011050025,76.79558011050025,76.79558011050025,75.15039900608883,75.15039900608883,75.15039900608883,77.28667894414289,77.28667894414289,77.28667894414289,74.20503377475258,74.20503377475258,74.20503377475258]",1,0.1855,0.05,-0.5,1,75.42331696,0.185,FALSE,0,14,14,14,1,,,,,,,,,,,,,,,,,,,
Please be patient as the study loads,66706a23c37c6099480f039d,66d895541319693e0a3a3141,66db1c8504a9fa4fe9ead5e6,2024-09-06_11h17.32.305,RewardEffortLearning_pilot7b,2023.1.3,Win32,6.540222368,,,,,,,,,,,,,,,,,,,,,,,,,,,,,,,,,,,,,,,,,,,,0,"You reached the planet, but a space pirate already plundered all the rubies!",You did not have enough fuel to reach the planet and a space pirate already plundered all the rubies!,stim/None.png,72,,,,,,,,,,,,,,,,,,,,,,,,,,,,6,6,1,24,0,,,,,,40,40,0,,,"[{""time"":931.1213000001907,""reactionTime"":1},{""time"":931.8965,""reactionTime"":0.19759999990458255},{""time"":932.2734000000953,""reactionTime"":0.1837999999522708},{""time"":932.6613000001907,""reactionTime"":0.1969000000954111},{""time"":933.0512000000476,""reactionTime"":0.18829999995227809},{""time"":933.4338000001907,""reactionTime"":0.19710000014299567},{""time"":933.8308000001907,""reactionTime"":0.2009000000953165},{""time"":934.2081000001431,""reactionTime"":0.1847000000477692},{""time"":934.5962000000477,""reactionTime"":0.1863999998570307},{""time"":934.9784000000953,""reactionTime"":0.1915000000000191},{""time"":935.6194000000953,""reactionTime"":0.4145999999045671},{""time"":936.0369000000953,""reactionTime"":0.19790000009538744},{""time"":936.4394000000954,""reactionTime"":0.21340000009536197},{""time"":937.0479000000954,""reactionTime"":0.40309999990472534},{""time"":937.4743000001907,""reactionTime"":0.20160000014311663},{""time"":937.8603000001907,""reactionTime"":0.19880000019065847},{""time"":938.5102000000477,""reactionTime"":0.4275000000000091},{""time"":938.9339000000954,""reactionTime"":0.22370000004775648},{""time"":939.5707000000476,""reactionTime"":0.22899999999992815},{""time"":939.9615,""reactionTime"":0.20619999980931425},{""time"":940.6,""reactionTime"":0.22209999990468532},{""time"":941.221100000143,""reactionTime"":0.40420000004769463},{""time"":941.642100000143,""reactionTime"":0.20240000009539472}]","[0.19759999990458255,0.1837999999522708,0.1969000000954111,0.18829999995227809,0.19710000014299567,0.2009000000953165,0.1847000000477692,0.1863999998570307,0.1915000000000191,0.4145999999045671,0.19790000009538744,0.21340000009536197,0.40309999990472534,0.20160000014311663,0.19880000019065847,0.4275000000000091,0.22370000004775648,0.22899999999992815,0.20619999980931425,0.22209999990468532,0.40420000004769463,0.20240000009539472]","[1,1,1,0.19759999990458255,0.19759999990458255,0.19069999992842668,0.1837999999522708,0.19035000002384095,0.1969000000954111,0.1926000000238446,0.18829999995227809,0.19270000004763688,0.19710000014299567,0.19900000011915608,0.2009000000953165,0.19280000007154285,0.1847000000477692,0.18554999995239996,0.1863999998570307,0.1889499999285249,0.1915000000000191,0.1915000000000191,0.4145999999045671,0.4145999999045671,0.30624999999997726,0.19790000009538744,0.2056500000953747,0.21340000009536197,0.21340000009536197,0.40309999990472534,0.40309999990472534,0.302350000023921,0.20160000014311663,0.20020000016688755,0.19880000019065847,0.19880000019065847,0.4275000000000091,0.4275000000000091,0.3256000000238828,0.22370000004775648,0.22370000004775648,0.22899999999992815,0.22899999999992815,0.2175999999046212,0.20619999980931425,0.20619999980931425,0.22209999990468532,0.22209999990468532,0.22209999990468532,0.40420000004769463,0.40420000004769463,0.3033000000715447,0.20240000009539472]","[99.30061350572173,100,99.34355827929052,98.53987728891376,99.06748465965816,99.59509203040255,99.05521471808855,98.51533740577455,98.28220857434381,98.04907974291307,99.042944776505,100,99.93251534327105,99.8282208764452,99.51533743209005,99.20245398773491,99.20245398773491,71.82822087061047,71.82822087061047,85.12269938651204,98.41717790241358,97.46625765701631,96.51533741161903,96.51533741161903,73.23926381537645,73.23926381537645,85.60122699093615,97.96319016649586,98.1349693046835,98.30674844287113,98.30674844287113,70.24539877301011,70.24539877301011,82.74846625474432,95.2515337364785,95.2515337364785,94.6012269938807,94.6012269938807,96.00000001170989,97.39877302953906,97.39877302953906,95.44785277243817,95.44785277243817,95.44785277243817,73.1042944726808,73.1042944726808,85.48466256791482,97.86503066314886]",1,0.185,0.05,-0.5,1,92.47085889,0.1838,TRUE,0,15,15,15,1,,,,,,,,,,,,,,,,,,,
Please be patient as the study loads,66706a23c37c6099480f039d,66d895541319693e0a3a3141,66db1c8504a9fa4fe9ead5e6,2024-09-06_11h17.32.305,RewardEffortLearning_pilot7b,2023.1.3,Win32,6.540222368,,,,,,,,,,,,,,,,,,,,,,,,,,,,,,,,,,,,,,,,,,,,6,"You reached the planet, you get 6 rubies!",You did not have enough fuel to reach the planet and missed 6 rubies!,stim/image6.png,59,,,,,,,,,,,,,,,,,,,,,,,,,,,,4,3,1,30,0,,,"[""return""]",[1.042799999952308],[0.00020000004769826774],55,30,0,,,"[{""time"":956.3431000001431,""reactionTime"":1},{""time"":956.9154000000954,""reactionTime"":1},{""time"":957.3235,""reactionTime"":0.19869999980926423},{""time"":957.726100000143,""reactionTime"":0.1892000000476628},{""time"":958.0972000000477,""reactionTime"":0.18370000004767917},{""time"":958.4726000001431,""reactionTime"":0.18479999995236085},{""time"":959.05,""reactionTime"":0.3771999998092497},{""time"":959.4334000000954,""reactionTime"":0.19140000009542746},{""time"":959.8133000001907,""reactionTime"":0.19710000014299567},{""time"":960.1893000001908,""reactionTime"":0.18540000009545565},{""time"":960.5967000000477,""reactionTime"":0.19479999995235175},{""time"":960.9804000000954,""reactionTime"":0.18740000009540836},{""time"":961.3589000000953,""reactionTime"":0.19079999995233266},{""time"":961.7345,""reactionTime"":0.1877999999524036},{""time"":962.1114000000954,""reactionTime"":0.1895000000000664},{""time"":962.4862000000477,""reactionTime"":0.18770000004769827},{""time"":963.0691000001431,""reactionTime"":0.37479999995230173},{""time"":963.4526000001431,""reactionTime"":0.19220000004770554},{""time"":963.8493000001907,""reactionTime"":0.20160000014311663},{""time"":964.2343000001907,""reactionTime"":0.19360000014307843},{""time"":964.613100000143,""reactionTime"":0.18560000014304023},{""time"":965.185,""reactionTime"":0.3806999998091669},{""time"":965.5623000001907,""reactionTime"":0.18999999999994088},{""time"":965.9603000001907,""reactionTime"":0.1958000001907294},{""time"":966.3412000000477,""reactionTime"":0.1848999998569525},{""time"":966.9287000000477,""reactionTime"":0.3803999998569907},{""time"":967.3041000001431,""reactionTime"":0.18879999995237995}]","[0.19869999980926423,0.1892000000476628,0.18370000004767917,0.18479999995236085,0.3771999998092497,0.19140000009542746,0.19710000014299567,0.18540000009545565,0.19479999995235175,0.18740000009540836,0.19079999995233266,0.1877999999524036,0.1895000000000664,0.18770000004769827,0.37479999995230173,0.19220000004770554,0.20160000014311663,0.19360000014307843,0.18560000014304023,0.3806999998091669,0.18999999999994088,0.1958000001907294,0.1848999998569525,0.3803999998569907,0.18879999995237995]","[1,1,1,1,1,0.5993499999046321,0.19869999980926423,0.1939499999284635,0.1892000000476628,0.18645000004767098,0.18370000004767917,0.18425000000002,0.18479999995236085,0.18479999995236085,0.3771999998092497,0.3771999998092497,0.28429999995233857,0.19140000009542746,0.19425000011921156,0.19710000014299567,0.19125000011922566,0.18540000009545565,0.1901000000239037,0.19479999995235175,0.19110000002388006,0.18740000009540836,0.1891000000238705,0.19079999995233266,0.18929999995236813,0.1877999999524036,0.188649999976235,0.1895000000000664,0.18860000002388233,0.18770000004769827,0.18770000004769827,0.37479999995230173,0.37479999995230173,0.28350000000000364,0.19220000004770554,0.1969000000954111,0.20160000014311663,0.19760000014309753,0.19360000014307843,0.18960000014305933,0.18560000014304023,0.18560000014304023,0.3806999998091669,0.3806999998091669,0.2853499999045539,0.18999999999994088,0.19290000009533514,0.1958000001907294,0.19035000002384095,0.1848999998569525,0.1848999998569525,0.3803999998569907,0.3803999998569907,0.2845999999046853]","[98.17446706001934,98.75643224998785,99.33839743995637,99.67532466365533,100,99.94486644845347,99.87748100955261,99.87748100955261,76.30482726713191,76.30482726713191,87.68684146113812,99.0688556551443,98.71967652948669,98.37049740382908,99.08723350079403,99.80396959775896,99.22813035147458,98.65229110519019,99.10561136104113,99.55893161689205,99.350649341915,99.14236706693794,99.32614555258813,99.50992403823832,99.40578289344761,99.3016417486569,99.41190883713172,99.52217592560653,99.52217592560653,76.59887282665257,76.59887282665257,87.78485664764732,98.97084046864207,98.39500120774636,97.81916194685067,98.30923790859842,98.79931387034617,99.28938983209393,99.77946579384168,99.77946579384168,75.87601080061481,75.87601080061481,87.55819652703445,99.24038225345411,98.88507716950107,98.52977208554805,99.19750060387318,99.86522912219831,99.86522912219831,75.9127664918864,75.9127664918864,87.65008576984563]",1,0.1838,0.05,-0.5,7,94.77927732,0.1837,TRUE,0,16,16,16,1,,,,,,,,,,,,,,,,,,,
Please be patient as the study loads,66706a23c37c6099480f039d,66d895541319693e0a3a3141,66db1c8504a9fa4fe9ead5e6,2024-09-06_11h17.32.305,RewardEffortLearning_pilot7b,2023.1.3,Win32,6.540222368,,,,,,,,,,,,,,,,,,,,,,,,,,,,,,,,,,,,,,,,,,,,0,"You reached the planet, but a space pirate already plundered all the rubies!",You did not have enough fuel to reach the planet and a space pirate already plundered all the rubies!,stim/None.png,49,,,,,,,,,,,,,,,,,,,,,,,,,,,,7,7,1,30,0,,,,,,35,35,0,,,"[{""time"":972.1691000001431,""reactionTime"":1},{""time"":972.7516000001431,""reactionTime"":1},{""time"":973.139,""reactionTime"":0.1995000000000573},{""time"":973.719100000143,""reactionTime"":0.3930000000000291},{""time"":974.1203000001907,""reactionTime"":0.20820000004766825},{""time"":974.7235,""reactionTime"":0.41479999995226535},{""time"":975.1033000001908,""reactionTime"":0.19310000014309026},{""time"":975.480100000143,""reactionTime"":0.18770000004769827},{""time"":975.8523000001908,""reactionTime"":0.18340000009538926},{""time"":976.2262000000477,""reactionTime"":0.1877999999522899},{""time"":976.8302000000476,""reactionTime"":0.39629999995224807},{""time"":977.2183000001908,""reactionTime"":0.19910000014306206},{""time"":977.627,""reactionTime"":0.19439999985695522},{""time"":978.0225,""reactionTime"":0.20269999980928333},{""time"":978.3993000001907,""reactionTime"":0.1918000001907103},{""time"":978.7728000001907,""reactionTime"":0.18290000009540108},{""time"":979.1469999999999,""reactionTime"":0.18709999990460346},{""time"":979.536,""reactionTime"":0.20239999985687973},{""time"":980.1094000000953,""reactionTime"":1},{""time"":980.4816000001431,""reactionTime"":0.18570000004774556},{""time"":980.867,""reactionTime"":0.1868999998569052},{""time"":981.2513000001908,""reactionTime"":0.18940000009547475},{""time"":981.624100000143,""reactionTime"":0.18240000009529922},{""time"":982.0149000000954,""reactionTime"":0.18740000009540836},{""time"":982.3899000000954,""reactionTime"":0.18700000000001182},{""time"":982.7659000000954,""reactionTime"":0.18709999990460346}]","[0.1995000000000573,0.3930000000000291,0.20820000004766825,0.41479999995226535,0.19310000014309026,0.18770000004769827,0.18340000009538926,0.1877999999522899,0.39629999995224807,0.19910000014306206,0.19439999985695522,0.20269999980928333,0.1918000001907103,0.18290000009540108,0.18709999990460346,0.20239999985687973,0.18570000004774556,0.1868999998569052,0.18940000009547475,0.18240000009529922,0.18740000009540836,0.18700000000001182,0.18709999990460346]","[1,1,1,1,1,0.5997500000000286,0.1995000000000573,0.1995000000000573,0.3930000000000291,0.3930000000000291,0.3006000000238487,0.20820000004766825,0.20820000004766825,0.41479999995226535,0.41479999995226535,0.3039500000476778,0.19310000014309026,0.19040000009539426,0.18770000004769827,0.18555000007154376,0.18340000009538926,0.18560000002383958,0.1877999999522899,0.1877999999522899,0.39629999995224807,0.39629999995224807,0.29770000004765507,0.19910000014306206,0.19675000000000864,0.19439999985695522,0.19854999983311927,0.20269999980928333,0.19724999999999682,0.1918000001907103,0.1873500001430557,0.18290000009540108,0.18500000000000227,0.18709999990460346,0.1947499998807416,0.20239999985687973,0.20239999985687973,1,1,0.5928500000238728,0.18570000004774556,0.18629999995232538,0.1868999998569052,0.18814999997618997,0.18940000009547475,0.18590000009538699,0.18240000009529922,0.1849000000953538,0.18740000009540836,0.1872000000477101,0.18700000000001182,0.18704999995230764,0.18709999990460346]","[98.06443709992637,98.06443709992637,74.35991670163237,74.35991670163237,85.67928457883161,96.99865245603085,96.99865245603085,71.68932991325683,71.68932991325683,85.26889623826752,98.84846256327819,99.17922331886483,99.50998407445147,99.77336763151138,100,99.76724243828599,99.49773368800071,99.49773368800071,73.95565356891012,73.95565356891012,86.03454612193624,98.11343867496234,98.40132304874535,98.68920742252836,98.18081590269418,97.67242438285999,98.34007105805352,99.00771773324706,99.55286045625509,100,99.84074483003809,99.58348648081308,98.64633102612915,97.7091755714452,97.7091755714452,0,0,49.87749601860938,99.75499203721877,99.68148966007618,99.6079872829336,99.45485729158756,99.30172730024151,99.73049123510519,100,99.85299521649581,99.54673526302274,99.57123606514328,99.59573686726382,99.58961167403845,99.58348648081308]",1,0.1837,0.05,-0.5,7,90.38800134,0.1824,TRUE,0,17,17,17,1,,,,,,,,,,,,,,,,,,,
Please be patient as the study loads,66706a23c37c6099480f039d,66d895541319693e0a3a3141,66db1c8504a9fa4fe9ead5e6,2024-09-06_11h17.32.305,RewardEffortLearning_pilot7b,2023.1.3,Win32,6.540222368,,,,,,,,,,,,,,,,,,,,,,,,,,,,,,,,,,,,,,,,,,,,5,"You reached the planet, you get 5 rubies!",You did not have enough fuel to reach the planet and missed 5 rubies!,stim/image5.png,34,,,,,,,,,,,,,,,,,,,,,,,,,,,,5,2,2,35,0,,,"[""return""]",[1.9649999999999181],[0.00020000004769826774],60,10,0,,,"[{""time"":1003.1983000001908,""reactionTime"":1},{""time"":1003.7596000001431,""reactionTime"":1},{""time"":1004.1392000000476,""reactionTime"":0.19129999995220714},{""time"":1004.5522000000476,""reactionTime"":0.20849999999995816},{""time"":1005.1299999999999,""reactionTime"":0.18469999980925422},{""time"":1005.5324000000953,""reactionTime"":0.21199999999998909},{""time"":1006.1078000001908,""reactionTime"":0.18670000004772191},{""time"":1006.4906000001431,""reactionTime"":0.1892999999524818},{""time"":1007.0729000000954,""reactionTime"":0.39770000004773465},{""time"":1007.4536000001431,""reactionTime"":0.1915000000001328},{""time"":1008.0231000001431,""reactionTime"":0.3712999999524982},{""time"":1008.4137000000476,""reactionTime"":0.18970000004765097},{""time"":1008.7949000000954,""reactionTime"":0.18579999995222352},{""time"":1009.3678000001908,""reactionTime"":0.3696000001430093},{""time"":1009.760100000143,""reactionTime"":0.19620000004761096},{""time"":1010.1428000001906,""reactionTime"":0.1875},{""time"":1010.7032000000477,""reactionTime"":0.3758999998569834},{""time"":1011.0777000000476,""reactionTime"":0.18699999999989814},{""time"":1011.4728000001908,""reactionTime"":0.2135000000000673},{""time"":1011.8589999999999,""reactionTime"":0.18699999999989814},{""time"":1012.4319000000953,""reactionTime"":0.37570000004757276},{""time"":1012.8123000001908,""reactionTime"":0.18680000019071485},{""time"":1013.1926000001431,""reactionTime"":0.18540000009534197},{""time"":1013.5659000000953,""reactionTime"":0.18849999999997635},{""time"":1013.9449000000955,""reactionTime"":0.18200000000001637}]","[0.19129999995220714,0.20849999999995816,0.18469999980925422,0.21199999999998909,0.18670000004772191,0.1892999999524818,0.39770000004773465,0.1915000000001328,0.3712999999524982,0.18970000004765097,0.18579999995222352,0.3696000001430093,0.19620000004761096,0.1875,0.3758999998569834,0.18699999999989814,0.2135000000000673,0.18699999999989814,0.37570000004757276,0.18680000019071485,0.18540000009534197,0.18849999999997635,0.18200000000001637]","[1,1,1,1,1,0.5956499999761036,0.19129999995220714,0.19989999997608265,0.20849999999995816,0.20849999999995816,0.18469999980925422,0.18469999980925422,0.19834999990462165,0.21199999999998909,0.21199999999998909,0.18670000004772191,0.18670000004772191,0.18800000000010186,0.1892999999524818,0.1892999999524818,0.39770000004773465,0.39770000004773465,0.2946000000239337,0.1915000000001328,0.1915000000001328,0.3712999999524982,0.3712999999524982,0.2805000000000746,0.18970000004765097,0.18774999999993724,0.18579999995222352,0.18579999995222352,0.3696000001430093,0.3696000001430093,0.28290000009531013,0.19620000004761096,0.19185000002380548,0.1875,0.1875,0.3758999998569834,0.3758999998569834,0.2814499999284408,0.18699999999989814,0.20024999999998272,0.2135000000000673,0.20024999999998272,0.18699999999989814,0.18699999999989814,0.37570000004757276,0.37570000004757276,0.2812500001191438,0.18680000019071485,0.1861000001430284,0.18540000009534197,0.18695000004765916,0.18849999999997635,0.18524999999999636,0.18200000000001637]","[98.9114481582748,97.85958905542769,96.80772995258057,96.80772995258057,99.71868888035432,99.71868888035432,98.0491683205502,96.37964776074608,96.37964776074608,99.4740704558557,99.4740704558557,99.31506850471436,99.15606655357304,99.15606655357304,73.66682974834507,73.66682974834507,86.27690803061246,98.88698631287987,98.88698631287987,76.89579257837364,76.89579257837364,88.00146772062011,99.10714286286661,99.34564580415098,99.58414874543536,99.58414874543536,77.10371819110445,77.10371819110445,87.70792563457374,98.31213307804302,98.8441780908014,99.37622310355978,99.37622310355978,76.33317028079276,76.33317028079276,87.88527399159898,99.4373777024052,97.81678083332142,96.19618396423763,97.81678083332142,99.4373777024052,99.4373777024052,76.3576320970151,76.3576320970151,87.90973580780742,99.46183951859975,99.54745596279838,99.63307240699702,99.44349315644688,99.25391390589675,99.65141879830854,100]",1,0.1824,0.05,-0.5,12,93.34884936,0.182,TRUE,0,18,18,18,1,,,,,,,,,,,,,,,,,,,
Please be patient as the study loads,66706a23c37c6099480f039d,66d895541319693e0a3a3141,66db1c8504a9fa4fe9ead5e6,2024-09-06_11h17.32.305,RewardEffortLearning_pilot7b,2023.1.3,Win32,6.540222368,,,,,,,,,,,,,,,,,,,,,,,,,,,,,,,,,,,,,,,,,,,,4,"You reached the planet, you get 4 rubies!",You did not have enough fuel to reach the planet and missed 4 rubies!,stim/image4.png,24,,,,,,,,,,,,,,,,,,,,,,,,,,,,5,5,2,39,0,,,,,,10,10,0,,,"[{""time"":1019.0494000000954,""reactionTime"":1},{""time"":1019.982100000143,""reactionTime"":0.3696000001430093},{""time"":1020.356,""reactionTime"":0.18769999980918328},{""time"":1020.9355,""reactionTime"":0.20839999985696522},{""time"":1022.0702000000476,""reactionTime"":0.5605000000000473},{""time"":1022.8588000001907,""reactionTime"":0.2009000000953165},{""time"":1023.6129000000954,""reactionTime"":0.18559999990452525},{""time"":1024.3738000001906,""reactionTime"":0.1877000000474709},{""time"":1024.9406000001431,""reactionTime"":1},{""time"":1025.915100000143,""reactionTime"":1},{""time"":1026.298600000143,""reactionTime"":0.9532999999523781},{""time"":1027.4499000000953,""reactionTime"":0.5954000000954238},{""time"":1028.2233000001906,""reactionTime"":1},{""time"":1028.807100000143,""reactionTime"":1.1709000000953438}]","[0.3696000001430093,0.18769999980918328,0.20839999985696522,0.5605000000000473,0.2009000000953165,0.18559999990452525,0.1877000000474709,0.9532999999523781,0.5954000000954238,1.1709000000953438]","[1,1,1,0.3696000001430093,0.3696000001430093,0.2786499999760963,0.18769999980918328,0.18769999980918328,0.20839999985696522,0.20839999985696522,0.20839999985696522,0.5605000000000473,0.5605000000000473,0.5605000000000473,0.2009000000953165,0.2009000000953165,0.2009000000953165,0.18559999990452525,0.18559999990452525,0.18559999990452525,0.1877000000474709,0.1877000000474709,0.1877000000474709,1,1,1,1,1,0.9766499999761891,0.9532999999523781,0.9532999999523781,0.5954000000954238,0.5954000000954238,0.5954000000954238,1,1,1,1.1709000000953438,1.1709000000953438,1.1709000000953438]","[77.06601465244539,88.18459657994109,99.3031785074368,99.3031785074368,96.77261615440716,96.77261615440716,96.77261615440716,53.7286063569635,53.7286063569635,53.7286063569635,97.6894865409168,97.6894865409168,97.6894865409168,99.55990221216273,99.55990221216273,99.55990221216273,99.30317847830628,99.30317847830628,99.30317847830628,0,0,0,0,0,2.854523230294792,5.709046460589584,5.709046460589584,49.46210267782204,49.46210267782204,49.46210267782204,0,0,0,0,0,0]",1,0.182,0.05,-0.5,16,51.87992394,0.1856,TRUE,0,19,19,19,1,,,,,,,,,,,,,,,,,,,
Please be patient as the study loads,66706a23c37c6099480f039d,66d895541319693e0a3a3141,66db1c8504a9fa4fe9ead5e6,2024-09-06_11h17.32.305,RewardEffortLearning_pilot7b,2023.1.3,Win32,6.540222368,,,,,,,,,,,,,,,,,,,,,,,,,,,,,,,,,,,,,,,,,,,,0,"You reached the planet, but a space pirate already plundered all the rubies!",You did not have enough fuel to reach the planet and a space pirate already plundered all the rubies!,stim/None.png,23,,,,,,,,,,,,,,,,,,,,,,,,,,,,5,2,2,39,0,,,"[""return""]",[2.3335000000001855],[null],50,95,0,,,"[{""time"":1048.271,""reactionTime"":1},{""time"":1048.8468000001908,""reactionTime"":1},{""time"":1049.2268000001907,""reactionTime"":0.18390000009526375},{""time"":1049.6,""reactionTime"":0.18599999999992178},{""time"":1050.1924000000954,""reactionTime"":0.39620000004765643},{""time"":1050.757100000143,""reactionTime"":0.3747000000475964},{""time"":1051.126,""reactionTime"":0.18359999990457254},{""time"":1051.713,""reactionTime"":0.405199999809156},{""time"":1052.3383000001907,""reactionTime"":0.4206000001429402},{""time"":1052.9683000001908,""reactionTime"":0.400900000095362},{""time"":1053.3449000000953,""reactionTime"":0.1892000000475491},{""time"":1053.9218000001906,""reactionTime"":0.186300000190613},{""time"":1054.5055,""reactionTime"":0.3981999998093215},{""time"":1054.8939000000953,""reactionTime"":0.18420000004766734},{""time"":1055.512100000143,""reactionTime"":0.20879999995213439},{""time"":1056.0838000001906,""reactionTime"":0.19710000014288198},{""time"":1056.4661000001431,""reactionTime"":0.18710000014311845},{""time"":1056.8373000001907,""reactionTime"":0.18610000014291472},{""time"":1057.4055,""reactionTime"":0.3795000000000073},{""time"":1057.7798000001908,""reactionTime"":0.183200000047691},{""time"":1058.553100000143,""reactionTime"":1},{""time"":1058.7568000001907,""reactionTime"":0.791800000190733}]","[0.18390000009526375,0.18599999999992178,0.39620000004765643,0.3747000000475964,0.18359999990457254,0.405199999809156,0.4206000001429402,0.400900000095362,0.1892000000475491,0.186300000190613,0.3981999998093215,0.18420000004766734,0.20879999995213439,0.19710000014288198,0.18710000014311845,0.18610000014291472,0.3795000000000073,0.183200000047691,0.791800000190733]","[1,1,1,1,1,0.5919500000476319,0.18390000009526375,0.18495000004759277,0.18599999999992178,0.18599999999992178,0.39620000004765643,0.39620000004765643,0.39620000004765643,0.3747000000475964,0.3747000000475964,0.2791499999760845,0.18359999990457254,0.18359999990457254,0.405199999809156,0.405199999809156,0.405199999809156,0.4206000001429402,0.4206000001429402,0.4206000001429402,0.400900000095362,0.400900000095362,0.29505000007145554,0.1892000000475491,0.1892000000475491,0.186300000190613,0.186300000190613,0.186300000190613,0.3981999998093215,0.3981999998093215,0.29119999992849444,0.18420000004766734,0.18420000004766734,0.20879999995213439,0.20879999995213439,0.20879999995213439,0.19710000014288198,0.19710000014288198,0.19210000014300022,0.18710000014311845,0.1866000001430166,0.18610000014291472,0.18610000014291472,0.3795000000000073,0.3795000000000073,0.28135000002384913,0.183200000047691,0.183200000047691,1,0.8959000000953665,0.8959000000953665,0.791800000190733]","[99.76772614972525,99.63936429736229,99.51100244499933,99.51100244499933,73.81418092327085,73.81418092327085,73.81418092327085,76.44254278146896,76.44254278146896,88.123471885566,99.80440098966305,99.80440098966305,72.71393645364988,72.71393645364988,72.71393645364988,70.83129582604785,70.83129582604785,70.83129582604785,73.23960879029951,73.23960879029951,86.17970659273333,99.11980439516714,99.11980439516714,99.47432760506153,99.47432760506153,99.47432760506153,73.56968217490105,73.56968217490105,86.6503667569095,99.73105133891796,99.73105133891796,96.72371638727158,96.72371638727158,96.72371638727158,98.15403421236358,98.15403421236358,98.76528115611441,99.37652809986525,99.43765279425423,99.49877748864321,99.49877748864321,75.85574572127203,75.85574572127203,87.85452322447009,99.85330072766814,99.85330072766814,0,12.726161357534904,12.726161357534904,25.45232271506982]",1,0.182,0.05,-0.5,16,82.5386308,0.1832,TRUE,0,20,20,20,1,,,,,,,,,,,,,,,,,,,
Please be patient as the study loads,66706a23c37c6099480f039d,66d895541319693e0a3a3141,66db1c8504a9fa4fe9ead5e6,2024-09-06_11h17.32.305,RewardEffortLearning_pilot7b,2023.1.3,Win32,6.540222368,,,,,,,,,,,,,,,,,,,,,,,,,,,,,,,,,,,,,,,,,,,,0,"You reached the planet, but a space pirate already plundered all the rubies!",You did not have enough fuel to reach the planet and a space pirate already plundered all the rubies!,stim/None.png,20,,,,,,,,,,,,,,,,,,,,,,,,,,,,7,7,2,39,0,,,,,,80,80,0,,,"[{""time"":1064.1143000001907,""reactionTime"":1},{""time"":1064.5104000000954,""reactionTime"":0.20509999990463257},{""time"":1065.1069000000953,""reactionTime"":1},{""time"":1065.756,""reactionTime"":0.4308999998570471},{""time"":1066.386,""reactionTime"":1},{""time"":1067.2197000000476,""reactionTime"":0.6170999999046671},{""time"":1067.8533000001908,""reactionTime"":0.41830000019081126},{""time"":1068.4543000001906,""reactionTime"":0.4143000001906785},{""time"":1069.5223000001906,""reactionTime"":1},{""time"":1070.1687000000477,""reactionTime"":1},{""time"":1070.3583000001906,""reactionTime"":1.4627000000475618},{""time"":1071.1248000001908,""reactionTime"":1},{""time"":1071.5094000000954,""reactionTime"":0.9647999999524473},{""time"":1072.4802000000477,""reactionTime"":0.4023999998569252},{""time"":1073.051600000143,""reactionTime"":0.3869999999999436},{""time"":1073.6119000000954,""reactionTime"":0.375},{""time"":1074.1899000000953,""reactionTime"":0.37449999999989814}]","[0.20509999990463257,0.4308999998570471,0.6170999999046671,0.41830000019081126,0.4143000001906785,1.4627000000475618,0.9647999999524473,0.4023999998569252,0.3869999999999436,0.375,0.37449999999989814]","[1,1,0.6025499999523163,0.20509999990463257,0.20509999990463257,1,1,1,0.4308999998570471,0.4308999998570471,0.4308999998570471,1,1,1,0.6170999999046671,0.6170999999046671,0.6170999999046671,0.41830000019081126,0.41830000019081126,0.41830000019081126,0.4143000001906785,0.4143000001906785,0.4143000001906785,1,1,1,1,1.231350000023781,1.231350000023781,1.4627000000475618,1,1,0.9823999999762236,0.9647999999524473,0.9647999999524473,0.4023999998569252,0.4023999998569252,0.4023999998569252,0.3869999999999436,0.3869999999999436,0.3869999999999436,0.375,0.375,0.375,0.37449999999989814,0.37449999999989814]","[0,0,69.5721271568416,69.5721271568416,69.5721271568416,0,0,0,46.80929096520055,46.80929096520055,46.80929096520055,71.11246941432768,71.11246941432768,71.11246941432768,71.60146696935614,71.60146696935614,71.60146696935614,0,0,0,0,0,0,0,0,0,2.1515892449604834,4.303178489920956,4.303178489920956,73.05623473631869,73.05623473631869,73.05623473631869,74.93887530563185,74.93887530563185,74.93887530563185,76.40586797066167,76.40586797066167,76.40586797066167,76.46699266505065,76.46699266505065]",1,0.182,0.05,-0.5,16,40.35452323,0.2051,TRUE,0,21,21,21,1,,,,,,,,,,,,,,,,,,,
Please be patient as the study loads,66706a23c37c6099480f039d,66d895541319693e0a3a3141,66db1c8504a9fa4fe9ead5e6,2024-09-06_11h17.32.305,RewardEffortLearning_pilot7b,2023.1.3,Win32,6.540222368,,,,,,,,,,,,,,,,,,,,,,,,,,,,,,,,,,,,,,,,,,,,4,"You reached the planet, you get 4 rubies!",You did not have enough fuel to reach the planet and missed 4 rubies!,stim/image4.png,41,,,,,,,,,,,,,,,,,,,,,,,,,,,,4,3,3,43,0,,,"[""return""]",[2.7107999999523145],[null],40,25,0,,,"[{""time"":1087.361600000143,""reactionTime"":1},{""time"":1087.9304000000955,""reactionTime"":1},{""time"":1088.328600000143,""reactionTime"":0.2074999999999818},{""time"":1089.1097000000477,""reactionTime"":0.5932999999524782},{""time"":1089.9126000001431,""reactionTime"":0.38310000014303114},{""time"":1090.6583000001908,""reactionTime"":0.3730000000000473},{""time"":1091.2417000000478,""reactionTime"":0.38459999990482174},{""time"":1092.0135,""reactionTime"":0.3787999999524345},{""time"":1092.5893000001906,""reactionTime"":0.38310000014303114},{""time"":1093.3439000000953,""reactionTime"":0.37249999999994543},{""time"":1094.320100000143,""reactionTime"":0.58199999999988},{""time"":1095.081,""reactionTime"":0.3869999999999436},{""time"":1095.8343000001908,""reactionTime"":0.37599999999997635},{""time"":1096.4132000000477,""reactionTime"":0.3843999998568961},{""time"":1097.1792000000478,""reactionTime"":0.3737000000478474},{""time"":1097.7488000001906,""reactionTime"":0.18820000004757276}]","[0.2074999999999818,0.5932999999524782,0.38310000014303114,0.3730000000000473,0.38459999990482174,0.3787999999524345,0.38310000014303114,0.37249999999994543,0.58199999999988,0.3869999999999436,0.37599999999997635,0.3843999998568961,0.3737000000478474,0.18820000004757276]","[1,1,1,1,1,0.6037499999999909,0.2074999999999818,0.2074999999999818,0.5932999999524782,0.5932999999524782,0.5932999999524782,0.38310000014303114,0.38310000014303114,0.38310000014303114,0.3730000000000473,0.3730000000000473,0.3730000000000473,0.38459999990482174,0.38459999990482174,0.38459999990482174,0.3787999999524345,0.3787999999524345,0.3787999999524345,0.38310000014303114,0.38310000014303114,0.38310000014303114,0.37249999999994543,0.37249999999994543,0.37249999999994543,0.58199999999988,0.58199999999988,0.58199999999988,0.3869999999999436,0.3869999999999436,0.3869999999999436,0.37599999999997635,0.37599999999997635,0.37599999999997635,0.3843999998568961,0.3843999998568961,0.3843999998568961,0.3737000000478474,0.3737000000478474,0.3737000000478474,0.18820000004757276,0.18820000004757276,0.18820000004757276]","[96.88264058680123,96.88264058680123,49.718826411678485,49.718826411678485,49.718826411678485,75.41564790427643,75.41564790427643,75.41564790427643,76.65036674816201,76.65036674816201,76.65036674816201,75.23227385026779,75.23227385026779,75.23227385026779,75.9413202992149,75.9413202992149,75.9413202992149,75.41564790427643,75.41564790427643,75.41564790427643,76.711491442551,76.711491442551,76.711491442551,51.1002444987932,51.1002444987932,51.1002444987932,74.93887530563185,74.93887530563185,74.93887530563185,76.28361858191151,76.28361858191151,76.28361858191151,75.25672373387728,75.25672373387728,75.25672373387728,76.56479217019132,76.56479217019132,76.56479217019132,99.2420537839173,99.2420537839173,99.2420537839173]",1,0.182,0.05,-0.5,20,74.85807144,0.1882,TRUE,0,22,22,22,1,,,,,,,,,,,,,,,,,,,
Please be patient as the study loads,66706a23c37c6099480f039d,66d895541319693e0a3a3141,66db1c8504a9fa4fe9ead5e6,2024-09-06_11h17.32.305,RewardEffortLearning_pilot7b,2023.1.3,Win32,6.540222368,,,,,,,,,,,,,,,,,,,,,,,,,,,,,,,,,,,,,,,,,,,,0,"You reached the planet, but a space pirate already plundered all the rubies!",You did not have enough fuel to reach the planet and a space pirate already plundered all the rubies!,stim/None.png,55,,,,,,,,,,,,,,,,,,,,,,,,,,,,3,3,3,43,0,,,,,,40,40,0,,,"[{""time"":1103.2139000000955,""reactionTime"":1},{""time"":1103.7864000000955,""reactionTime"":1},{""time"":1104.5566000001431,""reactionTime"":0.3887000000477201},{""time"":1105.3597000000477,""reactionTime"":0.4095999999046853},{""time"":1105.9854000000953,""reactionTime"":0.39940000009528376},{""time"":1106.5945,""reactionTime"":0.21009999990451433},{""time"":1107.1592000000476,""reactionTime"":0.1842999999521453},{""time"":1107.731600000143,""reactionTime"":0.19790000009538744},{""time"":1108.343100000143,""reactionTime"":0.4049999999999727},{""time"":1108.945600000143,""reactionTime"":0.20240000009539472},{""time"":1109.9027000000476,""reactionTime"":1},{""time"":1110.1093000001906,""reactionTime"":0.7806000001428401},{""time"":1110.6737000000476,""reactionTime"":0.37879999995220714},{""time"":1111.064,""reactionTime"":0.18479999995247454},{""time"":1111.6614000000955,""reactionTime"":0.20750000000020918},{""time"":1112.2327000000478,""reactionTime"":0.3733999998571562},{""time"":1112.8795,""reactionTime"":0.4382999999522781},{""time"":1113.68,""reactionTime"":0.40889999985711256}]","[0.3887000000477201,0.4095999999046853,0.39940000009528376,0.21009999990451433,0.1842999999521453,0.19790000009538744,0.4049999999999727,0.20240000009539472,0.7806000001428401,0.37879999995220714,0.18479999995247454,0.20750000000020918,0.3733999998571562,0.4382999999522781,0.40889999985711256]","[1,1,1,1,1,1,0.3887000000477201,0.3887000000477201,0.3887000000477201,0.4095999999046853,0.4095999999046853,0.4095999999046853,0.39940000009528376,0.39940000009528376,0.39940000009528376,0.21009999990451433,0.21009999990451433,0.21009999990451433,0.1842999999521453,0.1842999999521453,0.1842999999521453,0.19790000009538744,0.19790000009538744,0.19790000009538744,0.4049999999999727,0.4049999999999727,0.4049999999999727,0.20240000009539472,0.20240000009539472,0.20240000009539472,1,0.8903000000714201,0.8903000000714201,0.7806000001428401,0.37879999995220714,0.37879999995220714,0.28179999995234084,0.18479999995247454,0.18479999995247454,0.20750000000020918,0.20750000000020918,0.20750000000020918,0.3733999998571562,0.3733999998571562,0.3733999998571562,0.4382999999522781,0.4382999999522781,0.4382999999522781,0.40889999985711256,0.40889999985711256,0.40889999985711256]","[74.73105133891103,74.73105133891103,74.73105133891103,72.176039131458,72.176039131458,72.176039131458,73.42298287343867,73.42298287343867,73.42298287343867,96.56479218771412,96.56479218771412,96.56479218771412,99.71882641172017,99.71882641172017,99.71882641172017,98.0562347071673,98.0562347071673,98.0562347071673,72.73838630807326,72.73838630807326,72.73838630807326,97.50611245777766,97.50611245777766,97.50611245777766,0,13.410757937479477,13.410757937479477,26.821515874958955,75.9413202992427,75.9413202992427,87.79951100827304,99.6577017173034,99.6577017173034,96.88264058677343,96.88264058677343,96.88264058677343,76.60146701012913,76.60146701012913,76.60146701012913,68.66748166842704,68.66748166842704,68.66748166842704,72.26161370940089,72.26161370940089,72.26161370940089]",1,0.182,0.05,-0.5,20,77.56941049,0.1843,TRUE,0,23,23,23,1,,,,,,,,,,,,,,,,,,,
Please be patient as the study loads,66706a23c37c6099480f039d,66d895541319693e0a3a3141,66db1c8504a9fa4fe9ead5e6,2024-09-06_11h17.32.305,RewardEffortLearning_pilot7b,2023.1.3,Win32,6.540222368,,,,,,,,,,,,,,,,,,,,,,,,,,,,,,,,,,,,,,,,,,,,5,"You reached the planet, you get 5 rubies!",You did not have enough fuel to reach the planet and missed 5 rubies!,stim/image5.png,27,,,,,,,,,,,,,,,,,,,,,,,,,,,,3,6,3,48,0,,,"[""return""]",[2.2102000000477346],[null],55,70,0,,,"[{""time"":1128.8482000000477,""reactionTime"":1},{""time"":1129.4123000001907,""reactionTime"":1},{""time"":1130.2095,""reactionTime"":0.4006999998091487},{""time"":1131.007100000143,""reactionTime"":0.37260000014316574},{""time"":1131.593100000143,""reactionTime"":0.3947000000478056},{""time"":1132.3629000000954,""reactionTime"":0.3952999999523854},{""time"":1133.3599000000954,""reactionTime"":0.574500000000171},{""time"":1134.1338000001908,""reactionTime"":0.5741000001430621},{""time"":1134.7018000001908,""reactionTime"":0.37340000009544383},{""time"":1135.2631000001431,""reactionTime"":0.19079999995233266},{""time"":1135.8338000001906,""reactionTime"":0.18460000014306388},{""time"":1136.5863000001907,""reactionTime"":0.3742000000477219},{""time"":1136.974600000143,""reactionTime"":0.18679999995219987},{""time"":1137.5523000001908,""reactionTime"":0.3919000000955748},{""time"":1137.9424000000954,""reactionTime"":0.202599999904578},{""time"":1138.3174999999999,""reactionTime"":0.18619999980910507},{""time"":1139.0989000000955,""reactionTime"":0.2027000000477983},{""time"":1139.47,""reactionTime"":0.18669999980920693},{""time"":1139.843,""reactionTime"":0.1870000000001255}]","[0.4006999998091487,0.37260000014316574,0.3947000000478056,0.3952999999523854,0.574500000000171,0.5741000001430621,0.37340000009544383,0.19079999995233266,0.18460000014306388,0.3742000000477219,0.18679999995219987,0.3919000000955748,0.202599999904578,0.18619999980910507,0.2027000000477983,0.18669999980920693,0.1870000000001255]","[1,1,1,1,1,1,0.4006999998091487,0.4006999998091487,0.4006999998091487,0.37260000014316574,0.37260000014316574,0.37260000014316574,0.3947000000478056,0.3947000000478056,0.3947000000478056,0.3952999999523854,0.3952999999523854,0.3952999999523854,0.574500000000171,0.574500000000171,0.574500000000171,0.5741000001430621,0.5741000001430621,0.5741000001430621,0.37340000009544383,0.37340000009544383,0.37340000009544383,0.19079999995233266,0.19079999995233266,0.19079999995233266,0.18460000014306388,0.18460000014306388,0.18460000014306388,0.3742000000477219,0.3742000000477219,0.2804999999999609,0.18679999995219987,0.18679999995219987,0.3919000000955748,0.3919000000955748,0.2972500000000764,0.202599999904578,0.19439999985684153,0.18619999980910507,0.18619999980910507,0.2027000000477983,0.2027000000477983,0.19469999992850262,0.18669999980920693,0.18684999990466622]","[73.26405870303951,73.26405870303951,73.26405870303951,76.69926648616709,76.69926648616709,76.69926648616709,73.99755500638221,73.99755500638221,73.99755500638221,73.92420538479544,73.92420538479544,73.92420538479544,52.01711491440557,52.01711491440557,52.01711491440557,52.06601465243844,52.06601465243844,52.06601465243844,76.60146698099862,76.60146698099862,76.60146698099862,98.92420538480239,98.92420538480239,98.92420538480239,99.68215157175457,99.68215157175457,99.68215157175457,76.50366747583016,76.50366747583016,87.9584352078305,99.41320293983085,99.41320293983085,74.33985328905102,74.33985328905102,85.91075794620264,97.48166260335427,98.4841075969651,99.48655259057594,99.48655259057594,97.46943764697036,97.46943764697036,98.44743277157868,99.42542789618696,99.40709047620416]",1,0.182,0.05,-0.5,25,81.66064681,0.1846,TRUE,0,24,24,24,1,,,,,,,,,,,,,,,,,,,
