--,prolific_id,study_id,session_id,date,expName,psychopyVersion,OS,frameRate,key_resp_3.keys,key_resp_3.rt,key_resp_3.duration,main_start_keys_3.keys,main_start_keys_3.rt,main_start_keys_3.duration,trial_score_pract,total_score_pract,treshold_pract,trial_duration_pract,nr_of_incr_pract,threshold_reached,time_sequence,mintime_sequence_all,mintime_pract at t,rtArray,practicetrials.thisRepN,practicetrials.thisTrialN,practicetrials.thisN,practicetrials.thisIndex,practicetrials.ran,practPumps,effTresh,pract_img_keys.keys,pract_img_keys.rt,pract_img_keys.duration,reactionTimes_pract2,reactionTimesData_pract2,averageReactionTimesData_pract2,rtPercentageData_pract2,maxTime_pract2,minTime_pract2,maxPosBar_pract2,minPosBar_pract2,Accum points 2nd practice,percentage of bar reached_pract2,achieved_pract2,effLevel_pract2,practicetrials_2.thisRepN,practicetrials_2.thisTrialN,practicetrials_2.thisN,practicetrials_2.thisIndex,practicetrials_2.ran,Points,FeedbackText1,FeedbackText2,stimFile,effLevel,quiz_info_keys.keys,quiz_info_keys.rt,quiz_info_keys.duration,quizinfo.thisRepN,quizinfo.thisTrialN,quizinfo.thisN,quizinfo.thisIndex,quizinfo.ran,correct,response,quiz_score,next_quest.keys,next_quest.rt,next_quest.duration,instructionquiz.thisRepN,instructionquiz.thisTrialN,instructionquiz.thisN,instructionquiz.thisIndex,instructionquiz.ran,correctResp,question,resp1,resp2,resp3,main_start_keys.keys,main_start_keys.rt,main_start_keys.duration,rewRating,AnchorRewRating,AccuracyRewardRating,PossiblePointsSoFar,AccumulatedPointsSoFar,reward.response,reward.rt,login_reward.keys,login_reward.rt,login_reward.duration,effRating,AnchorEffRating,AccuracyEffortRating,slider.response,slider.rt,reactionTimes,reactionTimesData,averageReactionTimesData,rtPercentageData,maxTime,minTime,maxPosBar,minPosBar,Accum points main trials,percentage of bar reached,minimum RT on current trial,achieved,trials.thisRepN,trials.thisTrialN,trials.thisN,trials.thisIndex,trials.ran,end_break.keys,end_break.rt,end_break.duration,blocks.thisRepN,blocks.thisTrialN,blocks.thisN,blocks.thisIndex,blocks.ran,BlockNumber,TrialFile,TotalBlockNumber,bonusPayment,task_duration,end_key.keys,end_key.rt,end_key.duration,end.thisRepN,end.thisTrialN,end.thisN,end.thisIndex,end.ran
Please be patient as the study loads,6547bf8012d4702680d55663,66d895541319693e0a3a3141,66db1c8970bf01cc20c4fece,2024-09-06_10h30.03.678,RewardEffortLearning_pilot7b,2023.1.3,Win32,2.406738869,,,,,,,,,,,,,,,,,,,,,,,,,,,,,,,,,,,,,,,,,,,,,,,,,,,,,,,,,,,,,,,,,,,,,,,,,,,,,,,,,,,,,,,,,,,,,,,,,,,,,,,,,,,,,,,,,,,,,,,,,,,,,,,,
Please be patient as the study loads,6547bf8012d4702680d55663,66d895541319693e0a3a3141,66db1c8970bf01cc20c4fece,2024-09-06_10h30.03.678,RewardEffortLearning_pilot7b,2023.1.3,Win32,2.406738869,return,9.8891,0.0004,,,,,,,,,,,,,,,,,,,,,,,,,,,,,,,,,,,,,,,,,,,,,,,,,,,,,,,,,,,,,,,,,,,,,,,,,,,,,,,,,,,,,,,,,,,,,,,,,,,,,,,,,,,,,,,,,,,,,,,,,,,,,
Please be patient as the study loads,6547bf8012d4702680d55663,66d895541319693e0a3a3141,66db1c8970bf01cc20c4fece,2024-09-06_10h30.03.678,RewardEffortLearning_pilot7b,2023.1.3,Win32,2.406738869,,,,"[""return""]",[10.813300000190793],[0.00039999985688154993],,,,,,,,,,,,,,,,,,,,,,,,,,,,,,,,,,,,,,,,,,,,,,,,,,,,,,,,,,,,,,,,,,,,,,,,,,,,,,,,,,,,,,,,,,,,,,,,,,,,,,,,,,,,,,,,,,,,,,,,,,
Please be patient as the study loads,6547bf8012d4702680d55663,66d895541319693e0a3a3141,66db1c8970bf01cc20c4fece,2024-09-06_10h30.03.678,RewardEffortLearning_pilot7b,2023.1.3,Win32,2.406738869,,,,,,,,,,,,,,,,,,,,,,,,,,,,,,,,,,,,,,,,,,,,,,,,,,,,,,,,,,,,,,,,,,,,,,,,,,,,,,,,,,,,,,,,,,,,,,,,,,,,,,,,,,,,,,,,,,,,,,,,,,,,,,,,
Please be patient as the study loads,6547bf8012d4702680d55663,66d895541319693e0a3a3141,66db1c8970bf01cc20c4fece,2024-09-06_10h30.03.678,RewardEffortLearning_pilot7b,2023.1.3,Win32,2.406738869,,,,,,,,0,-0.36,16.4733,4,FALSE,"[[0.7602000000476892,3.06220000004771,1.6470999999046398,0.7590999999046062]]",[0.7590999999046062],0.7591,"[0.7602000000476892,3.06220000004771,1.6470999999046398,0.7590999999046062]",0,0,0,0,1,25,-0.36,,,,,,,,,,,,,,,,,,,,,,,,,,,,,,,,,,,,,,,,,,,,,,,,,,,,,,,,,,,,,,,,,,,,,,,,,,,,,,,,,,,,,,,,,,,,,,,,,,,,,,,,,
Please be patient as the study loads,6547bf8012d4702680d55663,66d895541319693e0a3a3141,66db1c8970bf01cc20c4fece,2024-09-06_10h30.03.678,RewardEffortLearning_pilot7b,2023.1.3,Win32,2.406738869,,,,,,,,0,-0.22,10.2904,2,FALSE,"[[2.279200000047581,1.50129999995238]]","[0.7590999999046062,1.50129999995238]",0.7591,"[2.279200000047581,1.50129999995238]",0,1,1,1,1,50,-0.22,,,,,,,,,,,,,,,,,,,,,,,,,,,,,,,,,,,,,,,,,,,,,,,,,,,,,,,,,,,,,,,,,,,,,,,,,,,,,,,,,,,,,,,,,,,,,,,,,,,,,,,,,
Please be patient as the study loads,6547bf8012d4702680d55663,66d895541319693e0a3a3141,66db1c8970bf01cc20c4fece,2024-09-06_10h30.03.678,RewardEffortLearning_pilot7b,2023.1.3,Win32,2.406738869,,,,,,,,0,0.05,11.5683,5,FALSE,"[[2.4068999998569325,0.7395999999046126,0.8907000000476728,1.5157999999522644,0.7462000000477929]]","[0.7590999999046062,1.50129999995238,0.7395999999046126]",0.7396,"[2.4068999998569325,0.7395999999046126,0.8907000000476728,1.5157999999522644,0.7462000000477929]",0,2,2,2,1,100,0.05,,,,,,,,,,,,,,,,,,,,,,,,,,,,,,,,,,,,,,,,,,,,,,,,,,,,,,,,,,,,,,,,,,,,,,,,,,,,,,,,,,,,,,,,,,,,,,,,,,,,,,,,,
Please be patient as the study loads,6547bf8012d4702680d55663,66d895541319693e0a3a3141,66db1c8970bf01cc20c4fece,2024-09-06_10h30.03.678,RewardEffortLearning_pilot7b,2023.1.3,Win32,2.406738869,,,,,,,,,,,,,,,,,,,,,,,,"[""return""]",[3.3521000001429684],[0.0004999999999881766],"[{""time"":352.12270000004776,""reactionTime"":1},{""time"":353.3842999999524,""reactionTime"":1},{""time"":354.1265000000001,""reactionTime"":1},{""time"":354.85870000004775,""reactionTime"":1},{""time"":355.5737000000478,""reactionTime"":1},{""time"":356.3360999999047,""reactionTime"":1},{""time"":357.22379999995235,""reactionTime"":1},{""time"":357.97870000004775,""reactionTime"":1},{""time"":358.7225999999047,""reactionTime"":1},{""time"":359.4437999999524,""reactionTime"":1},{""time"":360.18489999985695,""reactionTime"":1},{""time"":360.9185999999047,""reactionTime"":1},{""time"":361.75179999995237,""reactionTime"":1},{""time"":363.2700999999047,""reactionTime"":1},{""time"":364.0090999999047,""reactionTime"":1.541200000047752},{""time"":365.46870000004776,""reactionTime"":0.726300000190804},{""time"":367.06059999990464,""reactionTime"":0.7394999999999072},{""time"":367.8082999999524,""reactionTime"":1},{""time"":368.5490000000001,""reactionTime"":1},{""time"":369.409899999857,""reactionTime"":1},{""time"":370.1402999999524,""reactionTime"":1},{""time"":370.88189999985696,""reactionTime"":1},{""time"":372.37339999985704,""reactionTime"":0.7468999998569643},{""time"":373.12700000000007,""reactionTime"":1}]","[1.541200000047752,0.726300000190804,0.7394999999999072,0.7468999998569643]","[1,1,1,1,1,1,1,1,1,1,1,1,1,1,1.541200000047752,0.726300000190804,0.7394999999999072,1,1,1,1,1,0.7468999998569643,1]","[0,0,0,0,0,0,0,0,0,0,0,0,0,0,100,100,0,0,0,0,0,97.19662060304236,0]",1,0.7396,0.05,-0.5,0,12.9215922,FALSE,75,0,0,0,0,1,1,"You reached the planet, you get 1 ruby!",You did not have enough fuel to reach the planet and missed 1 ruby!,stim/image1.png,75,,,,,,,,,,,,,,,,,,,,,,,,,,,,,,,,,,,,,,,,,,,,,,,,,,,,,,,,,,,,,,,,,,,,,,,,,,,,,,,,
Please be patient as the study loads,6547bf8012d4702680d55663,66d895541319693e0a3a3141,66db1c8970bf01cc20c4fece,2024-09-06_10h30.03.678,RewardEffortLearning_pilot7b,2023.1.3,Win32,2.406738869,,,,,,,,,,,,,,,,,,,,,,,,,,,"[{""time"":380.4227000000477,""reactionTime"":1},{""time"":381.1485,""reactionTime"":1},{""time"":381.8742999999523,""reactionTime"":1},{""time"":383.34870000004776,""reactionTime"":1},{""time"":384.2357999999524,""reactionTime"":1},{""time"":385.00320000004774,""reactionTime"":1},{""time"":385.7365999999047,""reactionTime"":1},{""time"":386.4662000000477,""reactionTime"":3.855000000000018},{""time"":387.98300000000006,""reactionTime"":0.7427999999523536},{""time"":388.71370000004777,""reactionTime"":1},{""time"":389.4512000000477,""reactionTime"":1},{""time"":391.028899999857,""reactionTime"":1},{""time"":391.77639999985695,""reactionTime"":1.4855999999045935},{""time"":393.26259999990464,""reactionTime"":1}]","[3.855000000000018,0.7427999999523536,1.4855999999045935]","[1,1,1,1,1,1,1,3.855000000000018,0.7427999999523536,1,1,1,1.4855999999045935,1]","[0,0,0,0,0,0,93.97150172705436,0,0,0,0,0]",1,0.7263,0.05,-0.5,0,7.830958477,FALSE,75,0,1,1,1,1,0,"You reached the planet, but there were no rubies!",You did not have enough fuel to reach the planet and missed 0 rubies!,stim/None.png,75,,,,,,,,,,,,,,,,,,,,,,,,,,,,,,,,,,,,,,,,,,,,,,,,,,,,,,,,,,,,,,,,,,,,,,,,,,,,,,,,
Please be patient as the study loads,6547bf8012d4702680d55663,66d895541319693e0a3a3141,66db1c8970bf01cc20c4fece,2024-09-06_10h30.03.678,RewardEffortLearning_pilot7b,2023.1.3,Win32,2.406738869,,,,,,,,,,,,,,,,,,,,,,,,,,,"[{""time"":400.8307000000477,""reactionTime"":1},{""time"":401.68020000004776,""reactionTime"":1},{""time"":403.1490999999047,""reactionTime"":1},{""time"":403.9047000000477,""reactionTime"":1.4856000001429948},{""time"":405.4390000000001,""reactionTime"":0.7616000001430621},{""time"":406.9127999999523,""reactionTime"":1},{""time"":407.6497000000477,""reactionTime"":1.4661000001430011},{""time"":408.3987000000477,""reactionTime"":1},{""time"":409.8845,""reactionTime"":0.7497999999523017},{""time"":410.74339999985705,""reactionTime"":1},{""time"":411.4715999999047,""reactionTime"":1},{""time"":412.96809999990467,""reactionTime"":1}]","[1.4856000001429948,0.7616000001430621,1.4661000001430011,0.7497999999523017]","[1,1,1,1.4856000001429948,0.7616000001430621,1,1.4661000001430011,1,0.7497999999523017,1,1,1]","[0,0,87.10266716227011,0,0,0,91.41395696825711,0,0,0]",1,0.7263,0.05,-0.5,0,17.85166241,FALSE,25,0,2,2,2,1,3,"You reached the planet, you get 3 rubies!",You did not have enough fuel to reach the planet and missed 3 rubies!,stim/image3.png,25,,,,,,,,,,,,,,,,,,,,,,,,,,,,,,,,,,,,,,,,,,,,,,,,,,,,,,,,,,,,,,,,,,,,,,,,,,,,,,,,
Please be patient as the study loads,6547bf8012d4702680d55663,66d895541319693e0a3a3141,66db1c8970bf01cc20c4fece,2024-09-06_10h30.03.678,RewardEffortLearning_pilot7b,2023.1.3,Win32,2.406738869,,,,,,,,,,,,,,,,,,,,,,,,,,,"[{""time"":420.3652000000477,""reactionTime"":1},{""time"":421.1052999999523,""reactionTime"":1},{""time"":422.57939999985695,""reactionTime"":1},{""time"":423.31559999990463,""reactionTime"":1.474099999904638},{""time"":424.047399999857,""reactionTime"":1},{""time"":424.9007000000478,""reactionTime"":1},{""time"":426.38729999995235,""reactionTime"":0.7387999999523345},{""time"":427.124399999857,""reactionTime"":1},{""time"":427.85909999990463,""reactionTime"":1},{""time"":428.5905999999047,""reactionTime"":1},{""time"":429.3227999999524,""reactionTime"":1},{""time"":430.090399999857,""reactionTime"":1},{""time"":430.93000000000006,""reactionTime"":1},{""time"":432.3937999999523,""reactionTime"":0.73470000004761}]","[1.474099999904638,0.7387999999523345,0.73470000004761]","[1,1,1,1.474099999904638,1,1,0.7387999999523345,1,1,1,1,1,1,0.73470000004761]","[0,0,0,0,95.4329558749563,0,0,0,0,0,0,96.93094634173842]",1,0.7263,0.05,-0.5,0,16.03032518,FALSE,50,0,3,3,3,1,3,"You reached the planet,  you get 2 rubies!",You did not have enough fuel to reach the planet and missed 2 rubies!,stim/image2.png,50,,,,,,,,,,,,,,,,,,,,,,,,,,,,,,,,,,,,,,,,,,,,,,,,,,,,,,,,,,,,,,,,,,,,,,,,,,,,,,,,
Please be patient as the study loads,6547bf8012d4702680d55663,66d895541319693e0a3a3141,66db1c8970bf01cc20c4fece,2024-09-06_10h30.03.678,RewardEffortLearning_pilot7b,2023.1.3,Win32,2.406738869,,,,,,,,,,,,,,,,,,,,,,,,,,,,,,,,,,,,,,,,,,,,,,,,,"[""return""]",[5.558399999856874],[0.00020000004769826774],0,0,0,0,1,,,,,,,,,,,,,,,,,,,,,,,,,,,,,,,,,,,,,,,,,,,,,,,,,,,,,,,,,,,,,,,,,,,,,,,,
Please be patient as the study loads,6547bf8012d4702680d55663,66d895541319693e0a3a3141,66db1c8970bf01cc20c4fece,2024-09-06_10h30.03.678,RewardEffortLearning_pilot7b,2023.1.3,Win32,2.406738869,,,,,,,,,,,,,,,,,,,,,,,,,,,,,,,,,,,,,,,,,,,,,,,,,"[""return""]",[7.383800000190718],[0.00039999985699523677],1,0,1,0,1,,,,,,,,,,,,,,,,,,,,,,,,,,,,,,,,,,,,,,,,,,,,,,,,,,,,,,,,,,,,,,,,,,,,,,,,
Please be patient as the study loads,6547bf8012d4702680d55663,66d895541319693e0a3a3141,66db1c8970bf01cc20c4fece,2024-09-06_10h30.03.678,RewardEffortLearning_pilot7b,2023.1.3,Win32,2.406738869,,,,,,,,,,,,,,,,,,,,,,,,,,,,,,,,,,,,,,,,,,,,,,,,,,,,,,,,,TRUE,3,1,"[""return""]",[7.730200000047603],[null],0,0,0,0,1,3,How do you control your spaceship to reach each planet?,1. Press the 'z' and 'p' keys as fast as I can - energy waste does not matter.,2. Only press the 'z' key – that's how you move the spaceship.  ,3. Use the 'z' and 'p' keys to carefully fill the fuel tank close to the true threshold.,,,,,,,,,,,,,,,,,,,,,,,,,,,,,,,,,,,,,,,,,,,,,,,,,,,,,,,,
Please be patient as the study loads,6547bf8012d4702680d55663,66d895541319693e0a3a3141,66db1c8970bf01cc20c4fece,2024-09-06_10h30.03.678,RewardEffortLearning_pilot7b,2023.1.3,Win32,2.406738869,,,,,,,,,,,,,,,,,,,,,,,,,,,,,,,,,,,,,,,,,,,,,,,,,,,,,,,,,TRUE,2,2,"[""return""]",[0.5705999999047435],[null],0,1,1,2,1,2,"Throughout the game, what will change that you need to pay attention to?",1. Only the number of rubies on each planet.,2. Both the fuel needed to reach a planet and the number of rubies you can find there.,3. Only how much fuel it takes to reach each planet. ,,,,,,,,,,,,,,,,,,,,,,,,,,,,,,,,,,,,,,,,,,,,,,,,,,,,,,,,
Please be patient as the study loads,6547bf8012d4702680d55663,66d895541319693e0a3a3141,66db1c8970bf01cc20c4fece,2024-09-06_10h30.03.678,RewardEffortLearning_pilot7b,2023.1.3,Win32,2.406738869,,,,,,,,,,,,,,,,,,,,,,,,,,,,,,,,,,,,,,,,,,,,,,,,,,,,,,,,,TRUE,2,3,"[""return""]",[0.5705000000000382],[null],0,2,2,1,1,2,"If a planet has a huge pile of rubies, that means…",1. It will need a lot of fuel to reach it.,2. The number of rubies has nothing to do with how much fuel it takes to get there.,3. It will likely be easy and quick to travel there. ,,,,,,,,,,,,,,,,,,,,,,,,,,,,,,,,,,,,,,,,,,,,,,,,,,,,,,,,
Please be patient as the study loads,6547bf8012d4702680d55663,66d895541319693e0a3a3141,66db1c8970bf01cc20c4fece,2024-09-06_10h30.03.678,RewardEffortLearning_pilot7b,2023.1.3,Win32,2.406738869,,,,,,,,,,,,,,,,,,,,,,,,,,,,,,,,,,,,,,,,,,,,,,,,,,,,,,,,,TRUE,1,4,"[""return""]",[0.5732999999524964],[0.000299999952176222],0,3,3,3,1,1,"Throughout the game, does it make sense to always indicate the maximum amount of fuel?","1. No, I should adjust the fuel indication to match the true threshold. Maxing out could drain my energy before the game ends.","2. Yes, indicating the maximum is always advantageous.",3. It does not matter how much fuel I indicate.,,,,,,,,,,,,,,,,,,,,,,,,,,,,,,,,,,,,,,,,,,,,,,,,,,,,,,,,
Please be patient as the study loads,6547bf8012d4702680d55663,66d895541319693e0a3a3141,66db1c8970bf01cc20c4fece,2024-09-06_10h30.03.678,RewardEffortLearning_pilot7b,2023.1.3,Win32,2.406738869,,,,,,,,,,,,,,,,,,,,,,,,,,,,,,,,,,,,,,,,,,,,,,,,,,,,,,,,,,,,,,,,,,,,,,,,,"[""return""]",[1.627099999904658],[0.000299999952176222],,,,,,,,,,,,,,,,,,,,,,,,,,,,,,,,,,,,,,,,,,,,,,,,,,,,,
Please be patient as the study loads,6547bf8012d4702680d55663,66d895541319693e0a3a3141,66db1c8970bf01cc20c4fece,2024-09-06_10h30.03.678,RewardEffortLearning_pilot7b,2023.1.3,Win32,2.406738869,,,,,,,,,,,,,,,,,,,,,,,,,,,,,,,,,,,,,,,,,,,,2,"You reached the planet, you get 2 rubies!",You did not have enough fuel to reach the planet and missed 2 rubies!,stim/image2.png,48,,,,,,,,,,,,,,,,,,,,,,,,,,,,2,1,1,2,0,,,"[""return""]",[19.67340000009517],[0.00019999980941065587],80,100,0,,,"[{""time"":617.1188999998568,""reactionTime"":1},{""time"":618.4149999999998,""reactionTime"":1},{""time"":619.1545999999045,""reactionTime"":1},{""time"":619.8892999999522,""reactionTime"":1},{""time"":620.7239999999998,""reactionTime"":1},{""time"":621.5812000000477,""reactionTime"":1},{""time"":622.3334999999998,""reactionTime"":1},{""time"":623.0682000000476,""reactionTime"":1},{""time"":623.8390999999045,""reactionTime"":1},{""time"":624.6149999999999,""reactionTime"":1},{""time"":625.3797999999523,""reactionTime"":1},{""time"":626.1338999998569,""reactionTime"":1},{""time"":626.871,""reactionTime"":1},{""time"":627.6267999999521,""reactionTime"":1},{""time"":628.3713999998569,""reactionTime"":1},{""time"":629.8722999999524,""reactionTime"":0.7550000000001091},{""time"":630.6114999999999,""reactionTime"":1},{""time"":631.3527000000475,""reactionTime"":1},{""time"":632.8457000000477,""reactionTime"":1},{""time"":633.5969999999999,""reactionTime"":1.4932000000476364},{""time"":634.4713999998568,""reactionTime"":1},{""time"":636.0818999998568,""reactionTime"":0.8644999999999072},{""time"":636.8260999999046,""reactionTime"":1},{""time"":637.5612000000475,""reactionTime"":1},{""time"":638.3023999998569,""reactionTime"":1},{""time"":639.0443999998569,""reactionTime"":1}]","[0.7550000000001091,1.4932000000476364,0.8644999999999072]","[1,1,1,1,1,1,1,1,1,1,1,1,1,1,1,0.7550000000001091,1,1,1,1.4932000000476364,1,0.8644999999999072,1,1,1,1]","[0,0,0,0,0,0,0,0,0,0,0,0,0,0,94.08602147086967,0,0,0,0,0,52.03533024211121,0,0,0,0]",1,0.7396,0.05,-0.5,0,5.844854069,0.755,FALSE,0,0,0,0,1,,,,,,,,,,,,,,,,,,,,,
Please be patient as the study loads,6547bf8012d4702680d55663,66d895541319693e0a3a3141,66db1c8970bf01cc20c4fece,2024-09-06_10h30.03.678,RewardEffortLearning_pilot7b,2023.1.3,Win32,2.406738869,,,,,,,,,,,,,,,,,,,,,,,,,,,,,,,,,,,,,,,,,,,,2,"You reached the planet, you get 2 rubies!",You did not have enough fuel to reach the planet and missed 2 rubies!,stim/image2.png,63,,,,,,,,,,,,,,,,,,,,,,,,,,,,3,3,1,4,0,,,,,,60,60,0,,,"[{""time"":644.2322999999523,""reactionTime"":1},{""time"":645.1132000000476,""reactionTime"":1},{""time"":646.5775999999045,""reactionTime"":0.7307999999522963},{""time"":647.3285,""reactionTime"":1},{""time"":648.0688999998569,""reactionTime"":1},{""time"":648.8022000000477,""reactionTime"":1},{""time"":649.5357000000475,""reactionTime"":1},{""time"":650.2708999998569,""reactionTime"":1},{""time"":651.1247999999522,""reactionTime"":1},{""time"":652.5922000000477,""reactionTime"":1},{""time"":653.3417000000476,""reactionTime"":1.479300000190733},{""time"":654.2177000000476,""reactionTime"":1},{""time"":655.8314999999999,""reactionTime"":1},{""time"":656.5710999999045,""reactionTime"":1.4890000000000327}]","[0.7307999999522963,1.479300000190733,1.4890000000000327]","[1,1,0.7307999999522963,1,1,1,1,1,1,1,1.479300000190733,1,1,1.4890000000000327]","[100,0,0,0,0,0,0,0,0,0,0,0]",1,0.7396,0.05,-0.5,0,8.333333333,0.7308,FALSE,0,1,1,1,1,,,,,,,,,,,,,,,,,,,,,
Please be patient as the study loads,6547bf8012d4702680d55663,66d895541319693e0a3a3141,66db1c8970bf01cc20c4fece,2024-09-06_10h30.03.678,RewardEffortLearning_pilot7b,2023.1.3,Win32,2.406738869,,,,,,,,,,,,,,,,,,,,,,,,,,,,,,,,,,,,,,,,,,,,0,"You reached the planet, but a space pirate already plundered all the rubies!",You did not have enough fuel to reach the planet and a space pirate already plundered all the rubies!,stim/None.png,50,,,,,,,,,,,,,,,,,,,,,,,,,,,,6,2,1,4,0,,,"[""return"",""return""]","[1.6189999999999145,10.225900000095407]","[0.00030000019069120754,0.00020000004747089406]",45,35,0,,,"[{""time"":716.6954999999999,""reactionTime"":1},{""time"":717.4292000000477,""reactionTime"":1},{""time"":718.1595999999046,""reactionTime"":1},{""time"":718.9010999999047,""reactionTime"":1},{""time"":719.622,""reactionTime"":1},{""time"":720.36,""reactionTime"":1},{""time"":721.8572000000476,""reactionTime"":1},{""time"":722.6077999999521,""reactionTime"":1.5047000000474782},{""time"":724.0987999999523,""reactionTime"":0.749900000095522},{""time"":725.5924999999999,""reactionTime"":0.7506000001428674},{""time"":726.3477999999521,""reactionTime"":1},{""time"":727.0834999999998,""reactionTime"":1},{""time"":727.8375,""reactionTime"":1},{""time"":728.5675,""reactionTime"":1},{""time"":730.0562000000476,""reactionTime"":1},{""time"":730.8088999998569,""reactionTime"":1},{""time"":731.552,""reactionTime"":1}]","[1.5047000000474782,0.749900000095522,0.7506000001428674]","[1,1,1,1,1,1,1,1.5047000000474782,0.749900000095522,0.7506000001428674,1,1,1,1,1,1,1]","[0,0,0,0,0,0,92.9049033655865,92.64487363036312,0,0,0,0,0,0,0]",1,0.7308,0.05,-0.5,0,12.36998513,0.7499,FALSE,0,2,2,2,1,,,,,,,,,,,,,,,,,,,,,
Please be patient as the study loads,6547bf8012d4702680d55663,66d895541319693e0a3a3141,66db1c8970bf01cc20c4fece,2024-09-06_10h30.03.678,RewardEffortLearning_pilot7b,2023.1.3,Win32,2.406738869,,,,,,,,,,,,,,,,,,,,,,,,,,,,,,,,,,,,,,,,,,,,0,"You reached the planet, but a space pirate already plundered all the rubies!",You did not have enough fuel to reach the planet and a space pirate already plundered all the rubies!,stim/None.png,27,,,,,,,,,,,,,,,,,,,,,,,,,,,,5,5,1,4,0,,,,,,40,40,0,,,"[{""time"":735.8344999999998,""reactionTime"":1},{""time"":737.3215999999046,""reactionTime"":1},{""time"":738.0662000000476,""reactionTime"":1.5084000000954347},{""time"":738.8152999999523,""reactionTime"":1},{""time"":740.304899999857,""reactionTime"":1},{""time"":741.0472000000476,""reactionTime"":1.4903000001907003},{""time"":741.8098999998568,""reactionTime"":1},{""time"":742.5537999999523,""reactionTime"":1},{""time"":744.069399999857,""reactionTime"":0.7580999999047435},{""time"":744.814,""reactionTime"":1},{""time"":745.5547999999523,""reactionTime"":1},{""time"":747.1768999998568,""reactionTime"":0.8720999999045489}]","[1.5084000000954347,1.4903000001907003,0.7580999999047435,0.8720999999045489]","[1,1,1.5084000000954347,1,1,1.4903000001907003,1,1,0.7580999999047435,1,1,0.8720999999045489]","[0,0,0,0,0,0,0,89.85884102986273,0,0,47.51114415779588]",1,0.7308,0.05,-0.5,0,12.48818047,0.7581,FALSE,0,3,3,3,1,,,,,,,,,,,,,,,,,,,,,
Please be patient as the study loads,6547bf8012d4702680d55663,66d895541319693e0a3a3141,66db1c8970bf01cc20c4fece,2024-09-06_10h30.03.678,RewardEffortLearning_pilot7b,2023.1.3,Win32,2.406738869,,,,,,,,,,,,,,,,,,,,,,,,,,,,,,,,,,,,,,,,,,,,1,"You reached the planet, you get 1 ruby!",You did not have enough fuel to reach the planet and missed 1 ruby!,stim/image1.png,24,,,,,,,,,,,,,,,,,,,,,,,,,,,,4,4,1,5,0,,,"[""return"",""return""]","[0.5504000000953511,3.764600000142991]","[null,0.00039999985688154993]",90,90,0,,,"[{""time"":765.8395999999046,""reactionTime"":1},{""time"":766.5850999999046,""reactionTime"":1},{""time"":767.4643999998569,""reactionTime"":1},{""time"":768.2227000000477,""reactionTime"":1},{""time"":768.9415,""reactionTime"":1},{""time"":769.6835,""reactionTime"":1},{""time"":770.4285999999046,""reactionTime"":1},{""time"":771.1827999999522,""reactionTime"":1},{""time"":771.948,""reactionTime"":1},{""time"":772.688899999857,""reactionTime"":1},{""time"":773.4292999999521,""reactionTime"":1},{""time"":775.0380999999046,""reactionTime"":0.7429999999999382},{""time"":775.7737000000476,""reactionTime"":1},{""time"":776.6417000000475,""reactionTime"":1},{""time"":777.5037000000476,""reactionTime"":1},{""time"":779.006,""reactionTime"":0.7656000001431948},{""time"":780.5074999999998,""reactionTime"":1},{""time"":781.2570999999047,""reactionTime"":1.5030000000001564},{""time"":782.0112999999523,""reactionTime"":1},{""time"":783.5107999999522,""reactionTime"":1},{""time"":784.3720999999047,""reactionTime"":1}]","[0.7429999999999382,0.7656000001431948,1.5030000000001564]","[1,1,1,1,1,1,1,1,1,1,1,0.7429999999999382,1,1,1,0.7656000001431948,1,1.5030000000001564,1,1,1]","[0,0,0,0,0,0,0,0,0,95.46805347493314,0,0,0,87.07280825232844,0,0,0,0,0]",1,0.7308,0.05,-0.5,0,9.607413775,0.743,FALSE,0,4,4,4,1,,,,,,,,,,,,,,,,,,,,,
Please be patient as the study loads,6547bf8012d4702680d55663,66d895541319693e0a3a3141,66db1c8970bf01cc20c4fece,2024-09-06_10h30.03.678,RewardEffortLearning_pilot7b,2023.1.3,Win32,2.406738869,,,,,,,,,,,,,,,,,,,,,,,,,,,,,,,,,,,,,,,,,,,,0,"You reached the planet, but a space pirate already plundered all the rubies!",You did not have enough fuel to reach the planet and a space pirate already plundered all the rubies!,stim/None.png,22,,,,,,,,,,,,,,,,,,,,,,,,,,,,3,3,1,5,0,,,,,,45,45,0,,,"[{""time"":788.6145999999045,""reactionTime"":1},{""time"":789.4612000000476,""reactionTime"":1},{""time"":790.2200999999046,""reactionTime"":1},{""time"":791.7285999999045,""reactionTime"":0.7515000000000782},{""time"":792.5820999999045,""reactionTime"":1},{""time"":793.3332999999521,""reactionTime"":1},{""time"":794.079399999857,""reactionTime"":1},{""time"":795.7215,""reactionTime"":0.889200000047822},{""time"":796.4788999998569,""reactionTime"":1},{""time"":798.0215,""reactionTime"":1},{""time"":798.7958999998569,""reactionTime"":1.5390999999046926},{""time"":799.5307999999521,""reactionTime"":1},{""time"":801.024899999857,""reactionTime"":0.7486999998093324}]","[0.7515000000000782,0.889200000047822,1.5390999999046926,0.7486999998093324]","[1,1,1,0.7515000000000782,1,1,1,0.889200000047822,1,1,1.5390999999046926,1,0.7486999998093324]","[0,92.31054976073038,0,0,0,41.158989573753225,0,0,0,0,93.35066870213069]",1,0.7308,0.05,-0.5,0,20.62001891,0.7487,FALSE,0,5,5,5,1,,,,,,,,,,,,,,,,,,,,,
Please be patient as the study loads,6547bf8012d4702680d55663,66d895541319693e0a3a3141,66db1c8970bf01cc20c4fece,2024-09-06_10h30.03.678,RewardEffortLearning_pilot7b,2023.1.3,Win32,2.406738869,,,,,,,,,,,,,,,,,,,,,,,,,,,,,,,,,,,,,,,,,,,,0,"You reached the planet, but a space pirate already plundered all the rubies!",You did not have enough fuel to reach the planet and a space pirate already plundered all the rubies!,stim/None.png,36,,,,,,,,,,,,,,,,,,,,,,,,,,,,3,3,1,5,0,,,"[""return"",""return""]","[1.1237999999523254,3.2977999999523036]","[0.0007000000475727575,null]",20,20,0,,,"[{""time"":822.2959999999999,""reactionTime"":1},{""time"":823.0437000000476,""reactionTime"":1},{""time"":823.8037000000476,""reactionTime"":1},{""time"":824.5382999999523,""reactionTime"":1},{""time"":825.273,""reactionTime"":3.7164000000955184},{""time"":826.7548999998568,""reactionTime"":1},{""time"":827.4995,""reactionTime"":1.4915000000000873},{""time"":829.0098999998569,""reactionTime"":1},{""time"":829.7597999999522,""reactionTime"":1.5092000000477128},{""time"":831.3620999999047,""reactionTime"":1},{""time"":832.1082000000475,""reactionTime"":1.6152000000477074}]","[3.7164000000955184,1.4915000000000873,1.5092000000477128,1.6152000000477074]","[1,1,1,1,3.7164000000955184,1,1.4915000000000873,1,1.5092000000477128,1,1.6152000000477074]","[0,0,0,0,0,0,0,0,0,0]",1,0.7308,0.05,-0.5,0,0,1,FALSE,0,6,6,6,1,,,,,,,,,,,,,,,,,,,,,
Please be patient as the study loads,6547bf8012d4702680d55663,66d895541319693e0a3a3141,66db1c8970bf01cc20c4fece,2024-09-06_10h30.03.678,RewardEffortLearning_pilot7b,2023.1.3,Win32,2.406738869,,,,,,,,,,,,,,,,,,,,,,,,,,,,,,,,,,,,,,,,,,,,4,"You reached the planet, you get 4 rubies!",You did not have enough fuel to reach the planet and missed 4 rubies!,stim/image4.png,51,,,,,,,,,,,,,,,,,,,,,,,,,,,,2,2,1,9,0,,,,,,75,75,0,,,"[{""time"":836.5057000000476,""reactionTime"":1},{""time"":837.2397000000477,""reactionTime"":1},{""time"":838.0063999998569,""reactionTime"":1},{""time"":838.9527000000477,""reactionTime"":1},{""time"":840.175399999857,""reactionTime"":1},{""time"":841.4312999999523,""reactionTime"":1},{""time"":842.1549999999999,""reactionTime"":1},{""time"":842.9125999999045,""reactionTime"":1},{""time"":843.6472999999522,""reactionTime"":1},{""time"":844.8912000000477,""reactionTime"":1},{""time"":845.5077999999522,""reactionTime"":1},{""time"":846.1203999998569,""reactionTime"":1.8421999998092815},{""time"":847.3468999998569,""reactionTime"":1},{""time"":848.0657999999522,""reactionTime"":1},{""time"":848.6853999998569,""reactionTime"":1.9526999998092833},{""time"":849.917,""reactionTime"":1},{""time"":850.5247999999523,""reactionTime"":1},{""time"":851.1327000000475,""reactionTime"":1.8291000001429438},{""time"":851.7595,""reactionTime"":1},{""time"":852.3594999999999,""reactionTime"":1},{""time"":852.9650999999045,""reactionTime"":1},{""time"":853.5622000000477,""reactionTime"":1},{""time"":854.2545999999046,""reactionTime"":1}]","[1.8421999998092815,1.9526999998092833,1.8291000001429438]","[1,1,1,1,1,1,1,1,1,1,1,1.8421999998092815,1,1,1.9526999998092833,1,1,1.8291000001429438,1,1,1,1,1]","[0,0,0,0,0,0,0,0,0,0,0,0,0,0,0,0,0,0,0,0,0]",1,0.7308,0.05,-0.5,0,0,1,FALSE,0,7,7,7,1,,,,,,,,,,,,,,,,,,,,,
Please be patient as the study loads,6547bf8012d4702680d55663,66d895541319693e0a3a3141,66db1c8970bf01cc20c4fece,2024-09-06_10h30.03.678,RewardEffortLearning_pilot7b,2023.1.3,Win32,2.406738869,,,,,,,,,,,,,,,,,,,,,,,,,,,,,,,,,,,,,,,,,,,,0,"You reached the planet, but a space pirate already plundered all the rubies!",You did not have enough fuel to reach the planet and a space pirate already plundered all the rubies!,stim/None.png,65,,,,,,,,,,,,,,,,,,,,,,,,,,,,7,7,1,9,0,,,"[""return"",""return""]","[0.46309999990467077,9.172400000095422]","[null,null]",95,95,0,,,"[{""time"":884.4770999999045,""reactionTime"":1},{""time"":885.0822000000477,""reactionTime"":1},{""time"":885.6794999999998,""reactionTime"":1},{""time"":886.2840999999045,""reactionTime"":1},{""time"":887.5033999998569,""reactionTime"":1},{""time"":888.1050999999046,""reactionTime"":1},{""time"":888.7187999999522,""reactionTime"":1.8300999999046326},{""time"":889.3248999998569,""reactionTime"":1},{""time"":889.9407999999522,""reactionTime"":1},{""time"":891.1707000000475,""reactionTime"":1},{""time"":891.7917999999523,""reactionTime"":1},{""time"":892.3990999999045,""reactionTime"":1},{""time"":893.0074999999998,""reactionTime"":1},{""time"":893.6155,""reactionTime"":1},{""time"":894.2338999998568,""reactionTime"":3.67899999999986},{""time"":894.8497000000476,""reactionTime"":1},{""time"":896.0607000000476,""reactionTime"":1},{""time"":896.6804999999998,""reactionTime"":1.2347000000474964},{""time"":897.3935999999045,""reactionTime"":1}]","[1.8300999999046326,3.67899999999986,1.2347000000474964]","[1,1,1,1,1,1,1.8300999999046326,1,1,1,1,1,1,1,3.67899999999986,1,1,1.2347000000474964,1]","[0,0,0,0,0,0,0,0,0,0,0,0,0,0,0,0,0]",1,0.7308,0.05,-0.5,0,0,1,FALSE,0,8,8,8,1,,,,,,,,,,,,,,,,,,,,,
Please be patient as the study loads,6547bf8012d4702680d55663,66d895541319693e0a3a3141,66db1c8970bf01cc20c4fece,2024-09-06_10h30.03.678,RewardEffortLearning_pilot7b,2023.1.3,Win32,2.406738869,,,,,,,,,,,,,,,,,,,,,,,,,,,,,,,,,,,,,,,,,,,,0,"You reached the planet, but a space pirate already plundered all the rubies!",You did not have enough fuel to reach the planet and a space pirate already plundered all the rubies!,stim/None.png,63,,,,,,,,,,,,,,,,,,,,,,,,,,,,7,7,1,9,0,,,,,,90,90,0,,,"[{""time"":901.8013999998569,""reactionTime"":1},{""time"":903.0050999999045,""reactionTime"":1},{""time"":903.7048999998568,""reactionTime"":1},{""time"":904.3113999998569,""reactionTime"":1.922299999952429},{""time"":905.0067000000475,""reactionTime"":1},{""time"":905.6045999999045,""reactionTime"":1},{""time"":906.9212999999523,""reactionTime"":0.7104000000954329},{""time"":907.5267000000475,""reactionTime"":1},{""time"":908.1427000000475,""reactionTime"":1},{""time"":908.7573999998568,""reactionTime"":1},{""time"":909.9953999998569,""reactionTime"":1},{""time"":910.7115,""reactionTime"":1},{""time"":911.3105999999046,""reactionTime"":1.9455000000000382},{""time"":912.5408999998568,""reactionTime"":1}]","[1.922299999952429,0.7104000000954329,1.9455000000000382]","[1,1,1,1.922299999952429,1,1,0.7104000000954329,1,1,1,1,1,1.9455000000000382,1]","[0,0,0,0,0,100,0,0,0,0,0,0,0]",1,0.7308,0.05,-0.5,0,7.692307692,0.7104,FALSE,0,9,9,9,1,,,,,,,,,,,,,,,,,,,,,
Please be patient as the study loads,6547bf8012d4702680d55663,66d895541319693e0a3a3141,66db1c8970bf01cc20c4fece,2024-09-06_10h30.03.678,RewardEffortLearning_pilot7b,2023.1.3,Win32,2.406738869,,,,,,,,,,,,,,,,,,,,,,,,,,,,,,,,,,,,,,,,,,,,5,"You reached the planet, you get 5 rubies!",You did not have enough fuel to reach the planet and missed 5 rubies!,stim/image5.png,69,,,,,,,,,,,,,,,,,,,,,,,,,,,,2,2,1,14,0,,,"[""return"",""return"",""return""]","[0.015700000047672802,0.4586000001429511,0.45990000009533105]","[null,0.0006999998092851456,0.0004999999998744897]",15,15,0,,,"[{""time"":934.4032999999523,""reactionTime"":1},{""time"":935.006,""reactionTime"":1},{""time"":935.6047999999522,""reactionTime"":1},{""time"":936.2165999999046,""reactionTime"":1},{""time"":937.4300999999047,""reactionTime"":0.6055999999048254},{""time"":938.1362999999523,""reactionTime"":1},{""time"":939.3417999999523,""reactionTime"":1},{""time"":940.0477999999522,""reactionTime"":1},{""time"":940.7608999998569,""reactionTime"":1},{""time"":941.3603999998569,""reactionTime"":2.616399999856867},{""time"":942.0755999999045,""reactionTime"":1},{""time"":942.6747000000477,""reactionTime"":1},{""time"":943.3949999999999,""reactionTime"":1},{""time"":944.6342000000476,""reactionTime"":0.6071000001429638},{""time"":945.8485,""reactionTime"":0.6137000000476291},{""time"":946.4507000000475,""reactionTime"":1},{""time"":947.0512999999522,""reactionTime"":1}]","[0.6055999999048254,2.616399999856867,0.6071000001429638,0.6137000000476291]","[1,1,1,1,0.6055999999048254,1,1,1,1,2.616399999856867,1,1,1,0.6071000001429638,0.6137000000476291,1,1]","[0,0,100,0,0,0,0,0,0,0,0,100,100,0,0]",1,0.7104,0.05,-0.5,0,20,0.6056,FALSE,0,10,10,10,1,,,,,,,,,,,,,,,,,,,,,
Please be patient as the study loads,6547bf8012d4702680d55663,66d895541319693e0a3a3141,66db1c8970bf01cc20c4fece,2024-09-06_10h30.03.678,RewardEffortLearning_pilot7b,2023.1.3,Win32,2.406738869,,,,,,,,,,,,,,,,,,,,,,,,,,,,,,,,,,,,,,,,,,,,0,"You reached the planet, but a space pirate already plundered all the rubies!",You did not have enough fuel to reach the planet and a space pirate already plundered all the rubies!,stim/None.png,76,,,,,,,,,,,,,,,,,,,,,,,,,,,,2,2,1,14,0,,,,,,65,65,0,,,"[{""time"":951.4140999999046,""reactionTime"":1},{""time"":952.0118999998568,""reactionTime"":1},{""time"":952.6258999998569,""reactionTime"":1},{""time"":953.329399999857,""reactionTime"":1},{""time"":954.0397999999522,""reactionTime"":1},{""time"":955.3512999999522,""reactionTime"":0.6024000000952583},{""time"":956.6032000000477,""reactionTime"":0.6212000000477929},{""time"":957.2157999999523,""reactionTime"":1},{""time"":957.9245,""reactionTime"":1},{""time"":959.1383999998569,""reactionTime"":0.6170999999046671},{""time"":959.7557999999523,""reactionTime"":1},{""time"":960.3803999998569,""reactionTime"":1},{""time"":961.09,""reactionTime"":1},{""time"":961.6937000000477,""reactionTime"":1},{""time"":962.3037999999523,""reactionTime"":1},{""time"":963.015,""reactionTime"":1},{""time"":963.7208999998569,""reactionTime"":1},{""time"":964.3179999999999,""reactionTime"":1},{""time"":964.9339999999999,""reactionTime"":1}]","[0.6024000000952583,0.6212000000477929,0.6170999999046671]","[1,1,1,1,1,0.6024000000952583,0.6212000000477929,1,1,0.6170999999046671,1,1,1,1,1,1,1,1,1]","[0,0,0,100,96.04462471115544,0,0,97.08417849972956,0,0,0,0,0,0,0,0,0]",1,0.6056,0.05,-0.5,0,17.24287078,0.6024,FALSE,0,11,11,11,1,,,,,,,,,,,,,,,,,,,,,
Please be patient as the study loads,6547bf8012d4702680d55663,66d895541319693e0a3a3141,66db1c8970bf01cc20c4fece,2024-09-06_10h30.03.678,RewardEffortLearning_pilot7b,2023.1.3,Win32,2.406738869,,,,,,,,,,,,,,,,,,,,,,,,,,,,,,,,,,,,,,,,,,,,0,"You reached the planet, but a space pirate already plundered all the rubies!",You did not have enough fuel to reach the planet and a space pirate already plundered all the rubies!,stim/None.png,90,,,,,,,,,,,,,,,,,,,,,,,,,,,,5,5,1,14,0,,,"[""return"",""return""]","[0.468600000142942,7.311100000142915]","[0.0005000000001018634,null]",40,40,0,,,"[{""time"":986.917,""reactionTime"":1},{""time"":987.5147000000476,""reactionTime"":1},{""time"":988.1238999998569,""reactionTime"":1},{""time"":989.3257000000475,""reactionTime"":0.6003000001906003},{""time"":990.0352999999521,""reactionTime"":1},{""time"":991.2623999998569,""reactionTime"":1},{""time"":991.9725,""reactionTime"":1},{""time"":992.6055,""reactionTime"":1.9682999999524782},{""time"":993.206,""reactionTime"":1},{""time"":994.4254999999999,""reactionTime"":1},{""time"":995.0399999999998,""reactionTime"":1},{""time"":995.7585999999045,""reactionTime"":1.9382000000475728},{""time"":996.3747999999522,""reactionTime"":1},{""time"":996.9822000000476,""reactionTime"":1},{""time"":997.583899999857,""reactionTime"":1},{""time"":998.8095,""reactionTime"":0.6097000000477237}]","[0.6003000001906003,1.9682999999524782,1.9382000000475728,0.6097000000477237]","[1,1,1,0.6003000001906003,1,1,1,1.9682999999524782,1,1,1,1.9382000000475728,1,1,1,0.6097000000477237]","[0,100,0,0,0,0,0,0,0,0,0,0,0,98.16398391493601]",1,0.6024,0.05,-0.5,0,14.15457028,0.6003,FALSE,0,12,12,12,1,,,,,,,,,,,,,,,,,,,,,
Please be patient as the study loads,6547bf8012d4702680d55663,66d895541319693e0a3a3141,66db1c8970bf01cc20c4fece,2024-09-06_10h30.03.678,RewardEffortLearning_pilot7b,2023.1.3,Win32,2.406738869,,,,,,,,,,,,,,,,,,,,,,,,,,,,,,,,,,,,,,,,,,,,5,"You reached the planet, you get 5 rubies!",You did not have enough fuel to reach the planet and missed 5 rubies!,stim/image5.png,85,,,,,,,,,,,,,,,,,,,,,,,,,,,,2,2,1,19,0,,,,,,80,80,0,,,"[{""time"":1003.3647000000477,""reactionTime"":1},{""time"":1003.9830999999045,""reactionTime"":1},{""time"":1004.6997999999522,""reactionTime"":1},{""time"":1006.0257999999523,""reactionTime"":1},{""time"":1006.6322999999524,""reactionTime"":1.3255999999046253},{""time"":1007.843,""reactionTime"":1},{""time"":1008.4515,""reactionTime"":1.2161000001431148},{""time"":1009.675399999857,""reactionTime"":1},{""time"":1010.289399999857,""reactionTime"":1},{""time"":1010.8932999999523,""reactionTime"":1},{""time"":1011.5142000000477,""reactionTime"":1},{""time"":1012.1272999999522,""reactionTime"":3.0562000000477383},{""time"":1013.4415,""reactionTime"":1},{""time"":1014.0409999999998,""reactionTime"":1},{""time"":1014.6447999999522,""reactionTime"":1.8144999999999527},{""time"":1015.2533999998569,""reactionTime"":1}]","[1.3255999999046253,1.2161000001431148,3.0562000000477383,1.8144999999999527]","[1,1,1,1,1.3255999999046253,1,1.2161000001431148,1,1,1,1,3.0562000000477383,1,1,1.8144999999999527,1]","[0,0,0,0,0,0,0,0,0,0,0,0,0,0]",1,0.6003,0.05,-0.5,0,0,1,FALSE,0,13,13,13,1,,,,,,,,,,,,,,,,,,,,,
Please be patient as the study loads,6547bf8012d4702680d55663,66d895541319693e0a3a3141,66db1c8970bf01cc20c4fece,2024-09-06_10h30.03.678,RewardEffortLearning_pilot7b,2023.1.3,Win32,2.406738869,,,,,,,,,,,,,,,,,,,,,,,,,,,,,,,,,,,,,,,,,,,,5,"You reached the planet, you get 5 rubies!",You did not have enough fuel to reach the planet and missed 5 rubies!,stim/image5.png,86,,,,,,,,,,,,,,,,,,,,,,,,,,,,1,1,1,24,0,,,"[""return""]",[2.3407000000477183],[0.0007000000475727575],60,60,0,,,"[{""time"":1035.732,""reactionTime"":1},{""time"":1036.3424999999997,""reactionTime"":1},{""time"":1036.9693999998567,""reactionTime"":1},{""time"":1038.1948999998567,""reactionTime"":0.6189999999996871},{""time"":1039.3987000000475,""reactionTime"":1},{""time"":1040.0144999999998,""reactionTime"":1.215200000047389},{""time"":1040.622399999857,""reactionTime"":1},{""time"":1041.2297999999523,""reactionTime"":1},{""time"":1042.4532999999524,""reactionTime"":1},{""time"":1043.081899999857,""reactionTime"":1.2360999999045816},{""time"":1043.6905000000002,""reactionTime"":1},{""time"":1045.0140000000001,""reactionTime"":1},{""time"":1045.6373999998568,""reactionTime"":1},{""time"":1046.2578999998568,""reactionTime"":1},{""time"":1047.021899999857,""reactionTime"":2.623199999809458}]","[0.6189999999996871,1.215200000047389,1.2360999999045816,2.623199999809458]","[1,1,1,0.6189999999996871,1,1.215200000047389,1,1,1,1.2360999999045816,1,1,1,1,2.623199999809458]","[0,95.32149116387187,0,0,0,0,0,0,0,0,0,0,0]",1,0.6003,0.05,-0.5,0,7.332422397,0.619,FALSE,0,14,14,14,1,,,,,,,,,,,,,,,,,,,,,
Please be patient as the study loads,6547bf8012d4702680d55663,66d895541319693e0a3a3141,66db1c8970bf01cc20c4fece,2024-09-06_10h30.03.678,RewardEffortLearning_pilot7b,2023.1.3,Win32,2.406738869,,,,,,,,,,,,,,,,,,,,,,,,,,,,,,,,,,,,,,,,,,,,0,"You reached the planet, but a space pirate already plundered all the rubies!",You did not have enough fuel to reach the planet and a space pirate already plundered all the rubies!,stim/None.png,72,,,,,,,,,,,,,,,,,,,,,,,,,,,,2,2,1,24,0,,,,,,75,75,0,,,"[{""time"":1052.2857000000477,""reactionTime"":1},{""time"":1053.5307000000475,""reactionTime"":1},{""time"":1054.1667999999522,""reactionTime"":1.2545999999047126},{""time"":1055.5027000000478,""reactionTime"":0.7177000000478984},{""time"":1056.9560000000001,""reactionTime"":0.7332999999525782},{""time"":1057.5612000000474,""reactionTime"":1},{""time"":1058.8985999999045,""reactionTime"":1},{""time"":1059.5062999999523,""reactionTime"":1},{""time"":1060.1258999998568,""reactionTime"":1.9552999999523308},{""time"":1061.3547000000476,""reactionTime"":0.6080000000001746},{""time"":1061.976299999952,""reactionTime"":1},{""time"":1063.2030999999047,""reactionTime"":0.6235000000001492}]","[1.2545999999047126,0.7177000000478984,0.7332999999525782,1.9552999999523308,0.6080000000001746,0.6235000000001492]","[1,1,1.2545999999047126,0.7177000000478984,0.7332999999525782,1,1,1,1.9552999999523308,0.6080000000001746,1,0.6235000000001492]","[0,0,70.62797099992963,66.72504382651987,0,0,0,0,98.07355521309829,0,94.19564677993195]",1,0.6003,0.05,-0.5,0,29.96565607,0.608,FALSE,0,15,15,15,1,,,,,,,,,,,,,,,,,,,,,
Please be patient as the study loads,6547bf8012d4702680d55663,66d895541319693e0a3a3141,66db1c8970bf01cc20c4fece,2024-09-06_10h30.03.678,RewardEffortLearning_pilot7b,2023.1.3,Win32,2.406738869,,,,,,,,,,,,,,,,,,,,,,,,,,,,,,,,,,,,,,,,,,,,6,"You reached the planet, you get 6 rubies!",You did not have enough fuel to reach the planet and missed 6 rubies!,stim/image6.png,59,,,,,,,,,,,,,,,,,,,,,,,,,,,,7,7,1,30,0,,,"[""return"",""return""]","[1.9116999998093434,5.965199999809329]","[null,null]",15,15,0,,,"[{""time"":1091.909299999952,""reactionTime"":1},{""time"":1092.5164999999997,""reactionTime"":1},{""time"":1093.131399999857,""reactionTime"":1},{""time"":1093.7513999998569,""reactionTime"":1},{""time"":1094.357799999952,""reactionTime"":1},{""time"":1095.0732999999523,""reactionTime"":1},{""time"":1095.6962000000476,""reactionTime"":1},{""time"":1096.318899999857,""reactionTime"":1},{""time"":1096.9437999999523,""reactionTime"":1},{""time"":1097.5560999999047,""reactionTime"":1},{""time"":1098.176399999857,""reactionTime"":1},{""time"":1098.7947000000477,""reactionTime"":1},{""time"":1099.3984999999998,""reactionTime"":1},{""time"":1100.0140999999044,""reactionTime"":1},{""time"":1100.6167000000478,""reactionTime"":1},{""time"":1101.216899999857,""reactionTime"":1},{""time"":1101.8307999999524,""reactionTime"":1},{""time"":1102.437,""reactionTime"":1},{""time"":1103.0507000000475,""reactionTime"":1},{""time"":1103.6549999999997,""reactionTime"":1},{""time"":1104.2657999999524,""reactionTime"":1},{""time"":1104.8815999999047,""reactionTime"":1},{""time"":1105.5898999998567,""reactionTime"":1},{""time"":1106.2020999999045,""reactionTime"":1},{""time"":1106.8150999999048,""reactionTime"":1},{""time"":1107.4152000000477,""reactionTime"":1},{""time"":1108.0195999999046,""reactionTime"":1},{""time"":1108.6124999999997,""reactionTime"":1},{""time"":1109.2215,""reactionTime"":1},{""time"":1109.8265999999044,""reactionTime"":1},{""time"":1110.4257000000475,""reactionTime"":1},{""time"":1111.1275999999048,""reactionTime"":1},{""time"":1111.7284999999997,""reactionTime"":1},{""time"":1112.3322000000476,""reactionTime"":1},{""time"":1112.937,""reactionTime"":1},{""time"":1113.5380999999047,""reactionTime"":1},{""time"":1114.158,""reactionTime"":1},{""time"":1114.773299999952,""reactionTime"":1},{""time"":1115.3797999999524,""reactionTime"":1},{""time"":1115.9817000000476,""reactionTime"":1},{""time"":1116.5842000000475,""reactionTime"":1},{""time"":1117.1974999999998,""reactionTime"":1},{""time"":1117.8024999999998,""reactionTime"":1},{""time"":1118.422799999952,""reactionTime"":1},{""time"":1119.0279999999998,""reactionTime"":1},{""time"":1119.6315999999047,""reactionTime"":1},{""time"":1120.2475,""reactionTime"":1},{""time"":1120.8449999999998,""reactionTime"":1},{""time"":1121.4512000000477,""reactionTime"":1},{""time"":1122.0504999999998,""reactionTime"":1},{""time"":1122.7455999999047,""reactionTime"":1},{""time"":1123.3435,""reactionTime"":1},{""time"":1123.9555999999047,""reactionTime"":1},{""time"":1124.553399999857,""reactionTime"":1},{""time"":1125.255,""reactionTime"":1},{""time"":1125.8534999999997,""reactionTime"":1},{""time"":1126.5547999999521,""reactionTime"":1},{""time"":1127.1597000000475,""reactionTime"":1},{""time"":1127.7600999999045,""reactionTime"":1},{""time"":1128.3592000000476,""reactionTime"":1},{""time"":1129.5704999999998,""reactionTime"":1},{""time"":1130.1793999998567,""reactionTime"":1},{""time"":1130.7802000000474,""reactionTime"":1},{""time"":1131.3752999999524,""reactionTime"":1},{""time"":1132.0855000000001,""reactionTime"":1},{""time"":1132.7018999998568,""reactionTime"":3.737299999952029},{""time"":1133.314899999857,""reactionTime"":1},{""time"":1133.912899999857,""reactionTime"":1},{""time"":1134.529,""reactionTime"":1},{""time"":1135.1320999999048,""reactionTime"":1},{""time"":1135.8507000000477,""reactionTime"":1},{""time"":1136.5512000000476,""reactionTime"":1},{""time"":1137.1567000000477,""reactionTime"":1},{""time"":1137.7533999998568,""reactionTime"":1},{""time"":1138.4480999999046,""reactionTime"":1}]",[3.737299999952029],"[1,1,1,1,1,1,1,1,1,1,1,1,1,1,1,1,1,1,1,1,1,1,1,1,1,1,1,1,1,1,1,1,1,1,1,1,1,1,1,1,1,1,1,1,1,1,1,1,1,1,1,1,1,1,1,1,1,1,1,1,1,1,1,1,1,3.737299999952029,1,1,1,1,1,1,1,1,1]","[0,0,0,0,0,0,0,0,0,0,0,0,0,0,0,0,0,0,0,0,0,0,0,0,0,0,0,0,0,0,0,0,0,0,0,0,0,0,0,0,0,0,0,0,0,0,0,0,0,0,0,0,0,0,0,0,0,0,0,0,0,0,0,0,0,0,0,0,0,0,0,0,0]",1,0.6003,0.05,-0.5,0,0,1,FALSE,0,16,16,16,1,,,,,,,,,,,,,,,,,,,,,
Please be patient as the study loads,6547bf8012d4702680d55663,66d895541319693e0a3a3141,66db1c8970bf01cc20c4fece,2024-09-06_10h30.03.678,RewardEffortLearning_pilot7b,2023.1.3,Win32,2.406738869,,,,,,,,,,,,,,,,,,,,,,,,,,,,,,,,,,,,,,,,,,,,0,"You reached the planet, but a space pirate already plundered all the rubies!",You did not have enough fuel to reach the planet and a space pirate already plundered all the rubies!,stim/None.png,49,,,,,,,,,,,,,,,,,,,,,,,,,,,,7,7,1,30,0,,,,,,80,80,0,,,"[{""time"":1143.4487999999524,""reactionTime"":1},{""time"":1144.0712999999523,""reactionTime"":1},{""time"":1144.677899999857,""reactionTime"":1},{""time"":1145.921899999857,""reactionTime"":1},{""time"":1146.5325999999045,""reactionTime"":1.245700000047691},{""time"":1147.1399999999999,""reactionTime"":1},{""time"":1148.3407000000475,""reactionTime"":0.6014000000950546},{""time"":1149.578399999857,""reactionTime"":0.6197999999526473},{""time"":1150.9118999998568,""reactionTime"":0.6122999999520289},{""time"":1151.5125999999045,""reactionTime"":1},{""time"":1152.1317999999524,""reactionTime"":1},{""time"":1152.7395999999044,""reactionTime"":1},{""time"":1153.9609999999998,""reactionTime"":0.614200000047731},{""time"":1155.1594999999998,""reactionTime"":0.5987999999520071}]","[1.245700000047691,0.6014000000950546,0.6197999999526473,0.6122999999520289,0.614200000047731,0.5987999999520071]","[1,1,1,1,1.245700000047691,1,0.6014000000950546,0.6197999999526473,0.6122999999520289,1,1,1,0.614200000047731,0.5987999999520071]","[0,0,0,0,99.72479361896951,95.12134106296077,96.99774836948939,0,0,0,96.52239182793117,100]",1,0.6003,0.05,-0.5,0,40.69718957,0.5988,FALSE,0,17,17,17,1,,,,,,,,,,,,,,,,,,,,,
Please be patient as the study loads,6547bf8012d4702680d55663,66d895541319693e0a3a3141,66db1c8970bf01cc20c4fece,2024-09-06_10h30.03.678,RewardEffortLearning_pilot7b,2023.1.3,Win32,2.406738869,,,,,,,,,,,,,,,,,,,,,,,,,,,,,,,,,,,,,,,,,,,,5,"You reached the planet, you get 5 rubies!",You did not have enough fuel to reach the planet and missed 5 rubies!,stim/image5.png,34,,,,,,,,,,,,,,,,,,,,,,,,,,,,3,3,1,35,0,,,"[""return"",""return"",""return""]","[0.9092000000478038,0.9104999999999563,4.091700000047695]","[0.0004999999998744897,null,null]",5,5,0,,,"[{""time"":1171.539899999857,""reactionTime"":1},{""time"":1172.1595999999045,""reactionTime"":1},{""time"":1172.8732000000477,""reactionTime"":1},{""time"":1173.495899999857,""reactionTime"":1},{""time"":1174.1030999999048,""reactionTime"":1},{""time"":1174.6998999998568,""reactionTime"":1},{""time"":1175.3100999999047,""reactionTime"":1},{""time"":1176.0220999999046,""reactionTime"":1},{""time"":1176.640899999857,""reactionTime"":1},{""time"":1177.2444999999998,""reactionTime"":1},{""time"":1177.8753999998567,""reactionTime"":1},{""time"":1178.4837999999522,""reactionTime"":1},{""time"":1179.0975999999046,""reactionTime"":1},{""time"":1179.7019999999998,""reactionTime"":1},{""time"":1180.324,""reactionTime"":1},{""time"":1181.0482999999522,""reactionTime"":1},{""time"":1181.6727000000478,""reactionTime"":1},{""time"":1182.2892999999522,""reactionTime"":1},{""time"":1182.9102999999523,""reactionTime"":1},{""time"":1183.5172000000475,""reactionTime"":1},{""time"":1184.117899999857,""reactionTime"":1},{""time"":1185.4448999998567,""reactionTime"":1},{""time"":1186.066899999857,""reactionTime"":1.3332999999524873},{""time"":1186.6754999999998,""reactionTime"":1},{""time"":1188.013,""reactionTime"":1},{""time"":1188.6182000000476,""reactionTime"":1},{""time"":1189.2224999999999,""reactionTime"":1.9331000001429857},{""time"":1189.8428999998569,""reactionTime"":1},{""time"":1191.0682000000475,""reactionTime"":1},{""time"":1191.6903999998567,""reactionTime"":1.225999999999658},{""time"":1192.9383999998568,""reactionTime"":0.6159999999999854},{""time"":1193.5382000000477,""reactionTime"":1},{""time"":1194.8872000000474,""reactionTime"":1}]","[1.3332999999524873,1.9331000001429857,1.225999999999658,0.6159999999999854]","[1,1,1,1,1,1,1,1,1,1,1,1,1,1,1,1,1,1,1,1,1,1,1.3332999999524873,1,1,1,1.9331000001429857,1,1,1.225999999999658,0.6159999999999854,1,1]","[0,0,0,0,0,0,0,0,0,0,0,0,0,0,0,0,0,0,0,0,0,0,0,0,0,0,0,0,95.71286140430686,0,0]",1,0.5988,0.05,-0.5,0,3.087511658,0.616,FALSE,0,18,18,18,1,,,,,,,,,,,,,,,,,,,,,
Please be patient as the study loads,6547bf8012d4702680d55663,66d895541319693e0a3a3141,66db1c8970bf01cc20c4fece,2024-09-06_10h30.03.678,RewardEffortLearning_pilot7b,2023.1.3,Win32,2.406738869,,,,,,,,,,,,,,,,,,,,,,,,,,,,,,,,,,,,,,,,,,,,4,"You reached the planet, you get 4 rubies!",You did not have enough fuel to reach the planet and missed 4 rubies!,stim/image4.png,24,,,,,,,,,,,,,,,,,,,,,,,,,,,,1,1,1,39,0,,,,,,15,15,0,,,"[{""time"":1199.576,""reactionTime"":1},{""time"":1200.2998999998567,""reactionTime"":1},{""time"":1200.9085,""reactionTime"":1},{""time"":1201.647,""reactionTime"":1},{""time"":1202.3625999999044,""reactionTime"":1},{""time"":1203.0647000000477,""reactionTime"":1},{""time"":1203.6747000000478,""reactionTime"":1},{""time"":1204.2979999999998,""reactionTime"":1},{""time"":1204.9008999998568,""reactionTime"":1},{""time"":1205.7645999999045,""reactionTime"":1},{""time"":1206.384,""reactionTime"":1},{""time"":1207.100399999857,""reactionTime"":1},{""time"":1207.7077999999524,""reactionTime"":1},{""time"":1208.3317999999522,""reactionTime"":1},{""time"":1208.9375,""reactionTime"":1},{""time"":1209.649,""reactionTime"":1},{""time"":1210.3604999999998,""reactionTime"":1},{""time"":1210.9752000000476,""reactionTime"":1},{""time"":1211.599299999952,""reactionTime"":1},{""time"":1212.2125999999043,""reactionTime"":1},{""time"":1212.8249999999998,""reactionTime"":1},{""time"":1213.4547000000475,""reactionTime"":1},{""time"":1214.0642999999523,""reactionTime"":1},{""time"":1214.6632999999524,""reactionTime"":1},{""time"":1215.3763999998569,""reactionTime"":1},{""time"":1215.992899999857,""reactionTime"":1},{""time"":1216.5928999998569,""reactionTime"":1},{""time"":1217.3229999999999,""reactionTime"":1},{""time"":1217.934899999857,""reactionTime"":1},{""time"":1218.5347999999522,""reactionTime"":1},{""time"":1219.1550999999045,""reactionTime"":1},{""time"":1219.7812000000476,""reactionTime"":1},{""time"":1220.5228999998567,""reactionTime"":1},{""time"":1221.2290999999045,""reactionTime"":1},{""time"":1221.8412999999523,""reactionTime"":1},{""time"":1222.4552000000476,""reactionTime"":1},{""time"":1223.0592000000474,""reactionTime"":1},{""time"":1223.7627000000475,""reactionTime"":1},{""time"":1224.3725999999047,""reactionTime"":1},{""time"":1224.9782999999525,""reactionTime"":1},{""time"":1225.5797999999522,""reactionTime"":1},{""time"":1226.8075,""reactionTime"":0.6201000001428838},{""time"":1228.149,""reactionTime"":1},{""time"":1228.7737000000475,""reactionTime"":1},{""time"":1229.3809999999999,""reactionTime"":1},{""time"":1230.0127000000475,""reactionTime"":2.47790000009536},{""time"":1231.4457000000475,""reactionTime"":1},{""time"":1232.048899999857,""reactionTime"":1.3148999998570616},{""time"":1233.2590999999047,""reactionTime"":0.606899999856978},{""time"":1234.460799999952,""reactionTime"":0.5987000000473017},{""time"":1235.070299999952,""reactionTime"":1},{""time"":1236.2897999999523,""reactionTime"":0.6125999999044325}]","[0.6201000001428838,2.47790000009536,1.3148999998570616,0.606899999856978,0.5987000000473017,0.6125999999044325]","[1,1,1,1,1,1,1,1,1,1,1,1,1,1,1,1,1,1,1,1,1,1,1,1,1,1,1,1,1,1,1,1,1,1,1,1,1,1,1,1,1,0.6201000001428838,1,1,1,2.47790000009536,1,1.3148999998570616,0.606899999856978,0.5987000000473017,1,0.6125999999044325]","[0,0,0,0,0,0,0,0,0,0,0,0,0,0,0,0,0,0,0,0,0,0,0,0,0,0,0,0,0,0,0,0,0,0,0,0,0,0,0,94.69092717140359,0,0,0,0,0,0,97.9810568534392,100,0,96.56031905514092]",1,0.5988,0.05,-0.5,0,7.784646062,0.5987,FALSE,0,19,19,19,1,,,,,,,,,,,,,,,,,,,,,
Please be patient as the study loads,6547bf8012d4702680d55663,66d895541319693e0a3a3141,66db1c8970bf01cc20c4fece,2024-09-06_10h30.03.678,RewardEffortLearning_pilot7b,2023.1.3,Win32,2.406738869,,,,,,,,,,,,,,,,,,,,,,,,,,,,,,,,,,,,,,,,,,,,0,"You reached the planet, but a space pirate already plundered all the rubies!",You did not have enough fuel to reach the planet and a space pirate already plundered all the rubies!,stim/None.png,23,,,,,,,,,,,,,,,,,,,,,,,,,,,,4,4,1,39,0,,,"[""return"",""return""]","[0.4692000000477492,3.21809999990478]","[0.0007999999522780854,0.0006000001428674295]",90,90,0,,,"[{""time"":1266.6525999999044,""reactionTime"":1},{""time"":1267.267899999857,""reactionTime"":1},{""time"":1267.8848999998568,""reactionTime"":1},{""time"":1268.4887999999523,""reactionTime"":1},{""time"":1269.1948999998567,""reactionTime"":1},{""time"":1269.8072000000475,""reactionTime"":1},{""time"":1270.4277000000475,""reactionTime"":1},{""time"":1271.0363999998567,""reactionTime"":1},{""time"":1271.6327000000474,""reactionTime"":1},{""time"":1272.237299999952,""reactionTime"":1},{""time"":1272.8400000000001,""reactionTime"":1},{""time"":1274.0690999999047,""reactionTime"":0.620700000047691},{""time"":1274.679299999952,""reactionTime"":1},{""time"":1275.2827000000475,""reactionTime"":1},{""time"":1276.4968999998569,""reactionTime"":0.6062999999521708},{""time"":1277.1124999999997,""reactionTime"":1},{""time"":1277.7238999998567,""reactionTime"":1},{""time"":1278.4337000000478,""reactionTime"":1},{""time"":1279.0492000000477,""reactionTime"":1},{""time"":1279.6675999999047,""reactionTime"":1},{""time"":1280.2927000000477,""reactionTime"":1},{""time"":1280.9090999999044,""reactionTime"":1},{""time"":1281.5332999999523,""reactionTime"":1},{""time"":1282.152799999952,""reactionTime"":1},{""time"":1282.7558999998569,""reactionTime"":1},{""time"":1283.362299999952,""reactionTime"":1},{""time"":1283.9564999999998,""reactionTime"":1}]","[0.620700000047691,0.6062999999521708]","[1,1,1,1,1,1,1,1,1,1,1,0.620700000047691,1,1,0.6062999999521708,1,1,1,1,1,1,1,1,1,1,1,1]","[0,0,0,0,0,0,0,0,0,94.51781709369986,0,0,98.1061550197446,0,0,0,0,0,0,0,0,0,0,0,0]",1,0.5987,0.05,-0.5,0,7.704958885,0.6063,FALSE,0,20,20,20,1,,,,,,,,,,,,,,,,,,,,,
Please be patient as the study loads,6547bf8012d4702680d55663,66d895541319693e0a3a3141,66db1c8970bf01cc20c4fece,2024-09-06_10h30.03.678,RewardEffortLearning_pilot7b,2023.1.3,Win32,2.406738869,,,,,,,,,,,,,,,,,,,,,,,,,,,,,,,,,,,,,,,,,,,,0,"You reached the planet, but a space pirate already plundered all the rubies!",You did not have enough fuel to reach the planet and a space pirate already plundered all the rubies!,stim/None.png,20,,,,,,,,,,,,,,,,,,,,,,,,,,,,3,3,1,39,0,,,,,,70,70,0,,,"[{""time"":1288.2537999999522,""reactionTime"":1},{""time"":1288.8492000000474,""reactionTime"":1},{""time"":1289.539899999857,""reactionTime"":1},{""time"":1290.1457000000478,""reactionTime"":1},{""time"":1290.7644999999998,""reactionTime"":1},{""time"":1291.3607999999522,""reactionTime"":1},{""time"":1291.9653999998568,""reactionTime"":1},{""time"":1292.6667999999522,""reactionTime"":1},{""time"":1293.8830999999045,""reactionTime"":1},{""time"":1294.491799999952,""reactionTime"":1},{""time"":1295.088899999857,""reactionTime"":1},{""time"":1295.694,""reactionTime"":1},{""time"":1296.4097999999522,""reactionTime"":1},{""time"":1297.0137999999524,""reactionTime"":1},{""time"":1297.6352000000475,""reactionTime"":4.358400000095116},{""time"":1298.9758999998567,""reactionTime"":1},{""time"":1299.6905000000002,""reactionTime"":1.3331000001430766},{""time"":1300.3962999999521,""reactionTime"":1},{""time"":1301.590299999952,""reactionTime"":0.5954999999999018},{""time"":1302.8290999999044,""reactionTime"":1},{""time"":1303.5575,""reactionTime"":1.3669000000954838}]","[4.358400000095116,1.3331000001430766,0.5954999999999018,1.3669000000954838]","[1,1,1,1,1,1,1,1,1,1,1,1,1,1,4.358400000095116,1,1.3331000001430766,1,0.5954999999999018,1,1.3669000000954838]","[0,0,0,0,0,0,0,0,0,0,0,0,0,0,0,0,100,0,0]",1,0.5987,0.05,-0.5,0,5.263157895,0.5955,FALSE,0,21,21,21,1,,,,,,,,,,,,,,,,,,,,,
Please be patient as the study loads,6547bf8012d4702680d55663,66d895541319693e0a3a3141,66db1c8970bf01cc20c4fece,2024-09-06_10h30.03.678,RewardEffortLearning_pilot7b,2023.1.3,Win32,2.406738869,,,,,,,,,,,,,,,,,,,,,,,,,,,,,,,,,,,,,,,,,,,,4,"You reached the planet, you get 4 rubies!",You did not have enough fuel to reach the planet and missed 4 rubies!,stim/image4.png,41,,,,,,,,,,,,,,,,,,,,,,,,,,,,1,1,1,43,0,,,"[""return"",""return""]","[0.9477999999521671,8.742500000000064]","[null,null]",90,90,0,,,"[{""time"":1325.5903999998568,""reactionTime"":1},{""time"":1326.2042999999521,""reactionTime"":1},{""time"":1326.8139999999999,""reactionTime"":1},{""time"":1327.4102999999523,""reactionTime"":1},{""time"":1328.0137000000477,""reactionTime"":1},{""time"":1328.6312999999523,""reactionTime"":1},{""time"":1329.3510999999044,""reactionTime"":1},{""time"":1329.9642000000476,""reactionTime"":1},{""time"":1331.2717999999522,""reactionTime"":1},{""time"":1331.872399999857,""reactionTime"":1},{""time"":1332.4862999999523,""reactionTime"":1},{""time"":1333.1975999999045,""reactionTime"":2.5283999998569016},{""time"":1334.5255999999044,""reactionTime"":1},{""time"":1335.1340999999047,""reactionTime"":1.3140000000003056},{""time"":1335.7367000000477,""reactionTime"":1},{""time"":1336.4494999999997,""reactionTime"":1},{""time"":1337.650299999952,""reactionTime"":1},{""time"":1338.2492000000475,""reactionTime"":1.1966000001430075},{""time"":1338.865899999857,""reactionTime"":1},{""time"":1340.179299999952,""reactionTime"":1},{""time"":1340.8893999998568,""reactionTime"":1}]","[2.5283999998569016,1.3140000000003056,1.1966000001430075]","[1,1,1,1,1,1,1,1,1,1,1,2.5283999998569016,1,1.3140000000003056,1,1,1,1.1966000001430075,1,1,1]","[0,0,0,0,0,0,0,0,0,0,0,0,0,0,0,0,0,0,0]",1,0.5955,0.05,-0.5,0,0,1,FALSE,0,22,22,22,1,,,,,,,,,,,,,,,,,,,,,
Please be patient as the study loads,6547bf8012d4702680d55663,66d895541319693e0a3a3141,66db1c8970bf01cc20c4fece,2024-09-06_10h30.03.678,RewardEffortLearning_pilot7b,2023.1.3,Win32,2.406738869,,,,,,,,,,,,,,,,,,,,,,,,,,,,,,,,,,,,,,,,,,,,0,"You reached the planet, but a space pirate already plundered all the rubies!",You did not have enough fuel to reach the planet and a space pirate already plundered all the rubies!,stim/None.png,55,,,,,,,,,,,,,,,,,,,,,,,,,,,,2,2,1,43,0,,,,,,75,75,0,,,"[{""time"":1345.2515999999046,""reactionTime"":1},{""time"":1345.8608999998569,""reactionTime"":1},{""time"":1346.4497000000474,""reactionTime"":1},{""time"":1347.051399999857,""reactionTime"":1},{""time"":1347.6550999999045,""reactionTime"":1},{""time"":1348.259799999952,""reactionTime"":1},{""time"":1348.8629999999998,""reactionTime"":1},{""time"":1349.4712999999524,""reactionTime"":1},{""time"":1350.802899999857,""reactionTime"":0.620599999904698},{""time"":1352.0297000000478,""reactionTime"":1},{""time"":1352.6385999999047,""reactionTime"":1},{""time"":1353.2430999999046,""reactionTime"":1},{""time"":1353.8395999999047,""reactionTime"":2.4290999999047926},{""time"":1355.1309999999999,""reactionTime"":1},{""time"":1355.7280999999048,""reactionTime"":1.290799999952469},{""time"":1356.3383999998568,""reactionTime"":1},{""time"":1356.956299999952,""reactionTime"":1},{""time"":1358.1582000000476,""reactionTime"":1},{""time"":1358.7638999998567,""reactionTime"":1},{""time"":1359.497899999857,""reactionTime"":1},{""time"":1360.124399999857,""reactionTime"":2.5706999998092215},{""time"":1360.7342000000476,""reactionTime"":1}]","[0.620599999904698,2.4290999999047926,1.290799999952469,2.5706999998092215]","[1,1,1,1,1,1,1,1,0.620599999904698,1,1,1,2.4290999999047926,1,1.290799999952469,1,1,1,1,1,2.5706999998092215,1]","[0,0,0,0,0,0,93.79480842897647,0,0,0,0,0,0,0,0,0,0,0,0,0]",1,0.5955,0.05,-0.5,0,4.689740421,0.6206,FALSE,0,23,23,23,1,,,,,,,,,,,,,,,,,,,,,
Please be patient as the study loads,6547bf8012d4702680d55663,66d895541319693e0a3a3141,66db1c8970bf01cc20c4fece,2024-09-06_10h30.03.678,RewardEffortLearning_pilot7b,2023.1.3,Win32,2.406738869,,,,,,,,,,,,,,,,,,,,,,,,,,,,,,,,,,,,,,,,,,,,5,"You reached the planet, you get 5 rubies!",You did not have enough fuel to reach the planet and missed 5 rubies!,stim/image5.png,27,,,,,,,,,,,,,,,,,,,,,,,,,,,,6,6,1,48,0,,,"[""return"",""return""]","[1.8316999998094161,5.997599999904651]","[0.0007000000475727575,0.0007000000478001311]",75,75,0,,,"[{""time"":1399.1280000000002,""reactionTime"":1},{""time"":1399.7367000000477,""reactionTime"":1},{""time"":1400.4547000000475,""reactionTime"":1},{""time"":1401.0760999999047,""reactionTime"":1},{""time"":1401.6742999999524,""reactionTime"":1},{""time"":1402.2962000000475,""reactionTime"":1},{""time"":1402.9028999998568,""reactionTime"":1},{""time"":1404.2105999999044,""reactionTime"":1},{""time"":1404.8223999998568,""reactionTime"":1},{""time"":1405.5227000000477,""reactionTime"":1.9169999999999163},{""time"":1406.7263999998568,""reactionTime"":0.5965000000001055},{""time"":1407.9375999999047,""reactionTime"":0.6042999999526728},{""time"":1409.1462000000474,""reactionTime"":1},{""time"":1409.7627999999522,""reactionTime"":1.2280999999047708},{""time"":1410.9915999999043,""reactionTime"":0.6134999999999309},{""time"":1412.2070999999046,""reactionTime"":0.5990000000001601},{""time"":1413.427899999857,""reactionTime"":0.6105000000002292},{""time"":1414.031,""reactionTime"":1}]","[1.9169999999999163,0.5965000000001055,0.6042999999526728,1.2280999999047708,0.6134999999999309,0.5990000000001601,0.6105000000002292]","[1,1,1,1,1,1,1,1,1,1.9169999999999163,0.5965000000001055,0.6042999999526728,1,1.2280999999047708,0.6134999999999309,0.5990000000001601,0.6105000000002292,1]","[0,0,0,0,0,0,0,0,99.75278121132176,97.82447467175058,0,0,95.55006180469104,99.13473423973858,96.29171817050091,0]",1,0.5955,0.05,-0.5,5,30.53461063,0.5965,TRUE,0,24,24,24,1,,,,,,,,,,,,,,,,,,,,,
Please be patient as the study loads,6547bf8012d4702680d55663,66d895541319693e0a3a3141,66db1c8970bf01cc20c4fece,2024-09-06_10h30.03.678,RewardEffortLearning_pilot7b,2023.1.3,Win32,2.406738869,,,,,,,,,,,,,,,,,,,,,,,,,,,,,,,,,,,,,,,,,,,,0,"You reached the planet, but a space pirate already plundered all the rubies!",You did not have enough fuel to reach the planet and a space pirate already plundered all the rubies!,stim/None.png,26,,,,,,,,,,,,,,,,,,,,,,,,,,,,5,5,1,48,0,,,,,,5,5,0,,,"[{""time"":1418.3522999999523,""reactionTime"":1},{""time"":1418.9518999998568,""reactionTime"":1},{""time"":1419.5547999999521,""reactionTime"":1},{""time"":1420.1550999999045,""reactionTime"":1},{""time"":1420.851299999952,""reactionTime"":1},{""time"":1422.0567000000478,""reactionTime"":0.6014000000955093},{""time"":1422.6594999999998,""reactionTime"":1},{""time"":1423.8578999998567,""reactionTime"":0.5952999999522035},{""time"":1424.448899999857,""reactionTime"":1},{""time"":1425.654,""reactionTime"":0.5982999999523599},{""time"":1426.2649999999999,""reactionTime"":1},{""time"":1427.4780999999048,""reactionTime"":0.6110000000003311},{""time"":1428.083,""reactionTime"":1},{""time"":1429.2757999999521,""reactionTime"":1},{""time"":1429.8803999998568,""reactionTime"":1},{""time"":1430.6152000000475,""reactionTime"":1},{""time"":1431.256899999857,""reactionTime"":2.5800999999046326}]","[0.6014000000955093,0.5952999999522035,0.5982999999523599,0.6110000000003311,2.5800999999046326]","[1,1,1,1,1,0.6014000000955093,1,0.5952999999522035,1,0.5982999999523599,1,0.6110000000003311,1,1,1,1,2.5800999999046326]","[0,0,0,98.54140912345956,0,100,0,99.30778740359519,0,96.1681087761618,0,0,0,0,0]",1,0.5955,0.05,-0.5,5,26.26782035,0.5953,TRUE,0,25,25,25,1,,,,,,,,,,,,,,,,,,,,,
Please be patient as the study loads,6547bf8012d4702680d55663,66d895541319693e0a3a3141,66db1c8970bf01cc20c4fece,2024-09-06_10h30.03.678,RewardEffortLearning_pilot7b,2023.1.3,Win32,2.406738869,,,,,,,,,,,,,,,,,,,,,,,,,,,,,,,,,,,,,,,,,,,,6,"You reached the planet, you get 6 rubies!",You did not have enough fuel to reach the planet and missed 6 rubies!,stim/image6.png,27,,,,,,,,,,,,,,,,,,,,,,,,,,,,5,5,1,54,0,,,"[""return"",""return""]","[0.4561000001431239,2.2578000001906275]","[0.0007999999522780854,null]",95,95,0,,,"[{""time"":1501.7439999999997,""reactionTime"":1},{""time"":1502.349299999952,""reactionTime"":1},{""time"":1502.9627000000473,""reactionTime"":1},{""time"":1503.5634999999997,""reactionTime"":1},{""time"":1504.1797999999521,""reactionTime"":1},{""time"":1505.401399999857,""reactionTime"":0.604699999809327},{""time"":1506.0065999999047,""reactionTime"":1},{""time"":1506.6053999998567,""reactionTime"":1},{""time"":1507.21,""reactionTime"":1},{""time"":1508.4242000000477,""reactionTime"":1},{""time"":1509.1335,""reactionTime"":1},{""time"":1509.7420999999044,""reactionTime"":1.913000000000011},{""time"":1510.9457999999522,""reactionTime"":0.6017000000479129},{""time"":1512.256399999857,""reactionTime"":1},{""time"":1512.8593999998566,""reactionTime"":1.2961999998092324},{""time"":1514.076799999952,""reactionTime"":0.6069000000952656},{""time"":1515.2792000000477,""reactionTime"":0.6060000000002219}]","[0.604699999809327,1.913000000000011,0.6017000000479129,1.2961999998092324,0.6069000000952656,0.6060000000002219]","[1,1,1,1,1,0.604699999809327,1,1,1,1,1,1.913000000000011,0.6017000000479129,1,1.2961999998092324,0.6069000000952656,0.6060000000002219]","[0,0,0,97.67729185668068,0,0,0,0,0,0,98.41858164196849,0,0,97.1336792335824,97.35606621033983]",1,0.5953,0.05,-0.5,5,26.03904126,0.6017,FALSE,0,26,26,26,1,,,,,,,,,,,,,,,,,,,,,
Please be patient as the study loads,6547bf8012d4702680d55663,66d895541319693e0a3a3141,66db1c8970bf01cc20c4fece,2024-09-06_10h30.03.678,RewardEffortLearning_pilot7b,2023.1.3,Win32,2.406738869,,,,,,,,,,,,,,,,,,,,,,,,,,,,,,,,,,,,,,,,,,,,0,"You reached the planet, but a space pirate already plundered all the rubies!",You did not have enough fuel to reach the planet and a space pirate already plundered all the rubies!,stim/None.png,42,,,,,,,,,,,,,,,,,,,,,,,,,,,,7,7,1,54,0,,,,,,50,50,0,,,"[{""time"":1519.5728999998569,""reactionTime"":1},{""time"":1520.1807999999528,""reactionTime"":1},{""time"":1520.7897999999527,""reactionTime"":1},{""time"":1521.388200000048,""reactionTime"":1},{""time"":1521.9910999999047,""reactionTime"":1},{""time"":1522.6043999998574,""reactionTime"":1},{""time"":1523.245099999905,""reactionTime"":1},{""time"":1523.8628999998573,""reactionTime"":1},{""time"":1524.5858999998572,""reactionTime"":1},{""time"":1525.301200000048,""reactionTime"":1},{""time"":1525.9047000000478,""reactionTime"":1},{""time"":1526.6025000000004,""reactionTime"":1},{""time"":1527.843099999905,""reactionTime"":0.6140000000000327},{""time"":1528.452099999905,""reactionTime"":1},{""time"":1529.6738999998574,""reactionTime"":0.6181999998093488},{""time"":1530.8810000000003,""reactionTime"":0.6027000000476619},{""time"":1532.205099999905,""reactionTime"":0.7082000000477819},{""time"":1533.5075999999049,""reactionTime"":0.6030999999047708},{""time"":1534.7110000000002,""reactionTime"":0.6004000000953056},{""time"":1535.3112999999526,""reactionTime"":1},{""time"":1535.9223999998571,""reactionTime"":1},{""time"":1536.5180999999047,""reactionTime"":1},{""time"":1537.1137999999528,""reactionTime"":1}]","[0.6140000000000327,0.6181999998093488,0.6027000000476619,0.7082000000477819,0.6030999999047708,0.6004000000953056]","[1,1,1,1,1,1,1,1,1,1,1,1,0.6140000000000327,1,0.6181999998093488,0.6027000000476619,0.7082000000477819,0.6030999999047708,0.6004000000953056,1,1,1,1]","[0,0,0,0,0,0,0,0,0,0,95.37929329240902,0,94.34148755758815,98.17148502728332,72.10279217142462,98.07264641669235,98.73980722942926,0,0,0,0]",1,0.5953,0.05,-0.5,5,26.51464341,0.6004,FALSE,0,27,27,27,1,,,,,,,,,,,,,,,,,,,,,
Please be patient as the study loads,6547bf8012d4702680d55663,66d895541319693e0a3a3141,66db1c8970bf01cc20c4fece,2024-09-06_10h30.03.678,RewardEffortLearning_pilot7b,2023.1.3,Win32,2.406738869,,,,,,,,,,,,,,,,,,,,,,,,,,,,,,,,,,,,,,,,,,,,0,"You reached the planet, but a space pirate already plundered all the rubies!",You did not have enough fuel to reach the planet and a space pirate already plundered all the rubies!,stim/None.png,56,,,,,,,,,,,,,,,,,,,,,,,,,,,,2,2,1,54,0,,,"[""return"",""return""]","[0.4715000000001055,4.503999999999905]","[0.0008999998567560397,0.0007999999525054591]",100,100,0,,,"[{""time"":1569.7637000000482,""reactionTime"":1},{""time"":1570.3608999998573,""reactionTime"":1},{""time"":1570.9548999998574,""reactionTime"":1},{""time"":1571.5535000000004,""reactionTime"":1},{""time"":1572.2440000000001,""reactionTime"":1},{""time"":1573.5587999999525,""reactionTime"":0.5957000000476},{""time"":1574.7617999999525,""reactionTime"":1},{""time"":1575.3678999998574,""reactionTime"":1.208099999904789},{""time"":1576.0567999999525,""reactionTime"":1},{""time"":1577.2640000000001,""reactionTime"":0.6059999999997672},{""time"":1577.8615999999047,""reactionTime"":1},{""time"":1579.0675999999048,""reactionTime"":1},{""time"":1579.6660999999049,""reactionTime"":1.1968999998571235},{""time"":1580.2773999998572,""reactionTime"":1},{""time"":1581.4852999999525,""reactionTime"":1},{""time"":1582.0790999999049,""reactionTime"":1.196200000047611},{""time"":1582.6967999999524,""reactionTime"":1}]","[0.5957000000476,1.208099999904789,0.6059999999997672,1.1968999998571235,1.196200000047611]","[1,1,1,1,1,0.5957000000476,1,1.208099999904789,1,0.6059999999997672,1,1,1.1968999998571235,1,1,1.196200000047611,1]","[0,0,0,99.90116133052896,0,0,0,97.3560662104522,0,0,0,0,0,0,0]",1,0.5953,0.05,-0.5,5,13.15048184,0.5957,FALSE,0,28,28,28,1,,,,,,,,,,,,,,,,,,,,,
Please be patient as the study loads,6547bf8012d4702680d55663,66d895541319693e0a3a3141,66db1c8970bf01cc20c4fece,2024-09-06_10h30.03.678,RewardEffortLearning_pilot7b,2023.1.3,Win32,2.406738869,,,,,,,,,,,,,,,,,,,,,,,,,,,,,,,,,,,,,,,,,,,,4,"You reached the planet, you get 4 rubies!",You did not have enough fuel to reach the planet and missed 4 rubies!,stim/image4.png,72,,,,,,,,,,,,,,,,,,,,,,,,,,,,6,6,1,58,0,,,,,,65,65,0,,,"[{""time"":1588.1042999999527,""reactionTime"":1},{""time"":1588.7063999998572,""reactionTime"":1},{""time"":1589.3225000000002,""reactionTime"":1},{""time"":1589.9448999998572,""reactionTime"":1},{""time"":1591.256899999857,""reactionTime"":0.6875999999047053},{""time"":1592.5542000000478,""reactionTime"":1},{""time"":1593.1542000000481,""reactionTime"":1},{""time"":1593.7592999999524,""reactionTime"":1},{""time"":1594.3745000000004,""reactionTime"":2.5037000000479566},{""time"":1595.653200000048,""reactionTime"":0.5929999999998472},{""time"":1596.2537999999527,""reactionTime"":1},{""time"":1597.5667999999528,""reactionTime"":1},{""time"":1598.1772999999525,""reactionTime"":1.3110000000001492},{""time"":1599.4077999999527,""reactionTime"":1},{""time"":1600.0110000000004,""reactionTime"":1},{""time"":1600.628599999905,""reactionTime"":1.8237000000476655}]","[0.6875999999047053,2.5037000000479566,0.5929999999998472,1.3110000000001492,1.8237000000476655]","[1,1,1,1,0.6875999999047053,1,1,1,2.5037000000479566,0.5929999999998472,1,1,1.3110000000001492,1,1,1.8237000000476655]","[0,0,77.19298247057058,0,0,0,0,100,0,0,0,0,0,0]",1,0.5953,0.05,-0.5,5,12.65664161,0.593,FALSE,0,29,29,29,1,,,,,,,,,,,,,,,,,,,,,
Please be patient as the study loads,6547bf8012d4702680d55663,66d895541319693e0a3a3141,66db1c8970bf01cc20c4fece,2024-09-06_10h30.03.678,RewardEffortLearning_pilot7b,2023.1.3,Win32,2.406738869,,,,,,,,,,,,,,,,,,,,,,,,,,,,,,,,,,,,,,,,,,,,,,,,,,,,,,,,,,,,,,,,,,,,,,,,,,,,,,,,,,,,,,,,,,,,,,,,,,,,,,,,,,,,return,7.8856,0.0009,0,0,0,0,1,1,trialTypes1.csv,2,,,,,,,,,,
Please be patient as the study loads,6547bf8012d4702680d55663,66d895541319693e0a3a3141,66db1c8970bf01cc20c4fece,2024-09-06_10h30.03.678,RewardEffortLearning_pilot7b,2023.1.3,Win32,2.406738869,,,,,,,,,,,,,,,,,,,,,,,,,,,,,,,,,,,,,,,,,,,,0,"You reached the planet, but a space pirate already plundered all the rubies!",You did not have enough fuel to reach the planet and a space pirate already plundered all the rubies!,stim/None.png,41,,,,,,,,,,,,,,,,,,,,,,,,,,,,5,5,1,58,0,,,"[""return"",""return""]","[0.4557999999524327,3.612500000000182]","[0.0009999999997489795,0.0007000000473453838]",35,35,0,,,"[{""time"":1664.9370000000004,""reactionTime"":1},{""time"":1665.5443999998574,""reactionTime"":1},{""time"":1666.150599999905,""reactionTime"":1},{""time"":1666.7622000000479,""reactionTime"":1},{""time"":1667.9833999998573,""reactionTime"":0.6195999999044943},{""time"":1669.1897999999528,""reactionTime"":0.6009000000954074},{""time"":1670.488099999905,""reactionTime"":1},{""time"":1671.0895999999047,""reactionTime"":1.198299999952269},{""time"":1672.5492000000481,""reactionTime"":0.7301000001430111},{""time"":1673.158099999905,""reactionTime"":1},{""time"":1674.3853999998573,""reactionTime"":0.6228999998570544},{""time"":1674.9912999999524,""reactionTime"":1},{""time"":1676.2198999998573,""reactionTime"":0.6105000000002292},{""time"":1677.6598999998573,""reactionTime"":0.7163999998570034}]","[0.6195999999044943,0.6009000000954074,1.198299999952269,0.7301000001430111,0.6228999998570544,0.6105000000002292,0.7163999998570034]","[1,1,1,1,0.6195999999044943,0.6009000000954074,1,1.198299999952269,0.7301000001430111,1,0.6228999998570544,1,0.6105000000002292,0.7163999998570034]","[0,0,93.46437348780414,98.05896803548961,0,0,66.31449627933354,0,92.65356268864964,0,95.70024570015346,69.68058971569782]",1,0.593,0.05,-0.5,5,42.98935299,0.6009,TRUE,0,0,0,0,1,,,,,,,,,,,,,,,,,,,,,
Please be patient as the study loads,6547bf8012d4702680d55663,66d895541319693e0a3a3141,66db1c8970bf01cc20c4fece,2024-09-06_10h30.03.678,RewardEffortLearning_pilot7b,2023.1.3,Win32,2.406738869,,,,,,,,,,,,,,,,,,,,,,,,,,,,,,,,,,,,,,,,,,,,2,"You reached the planet, you get 2 rubies!",You did not have enough fuel to reach the planet and missed 2 rubies!,stim/image2.png,40,,,,,,,,,,,,,,,,,,,,,,,,,,,,1,1,1,60,0,,,,,,60,60,0,,,"[{""time"":1682.2242000000479,""reactionTime"":1},{""time"":1682.8228999998573,""reactionTime"":1},{""time"":1683.4253999998573,""reactionTime"":1},{""time"":1684.1373999998573,""reactionTime"":1},{""time"":1684.8250000000003,""reactionTime"":1},{""time"":1685.4252999999526,""reactionTime"":1},{""time"":1686.6525000000001,""reactionTime"":0.6027999999523672},{""time"":1687.8537000000479,""reactionTime"":0.5999000000952037},{""time"":1689.0833999998572,""reactionTime"":1},{""time"":1689.680599999905,""reactionTime"":1},{""time"":1690.2785000000003,""reactionTime"":1.8279999999999745},{""time"":1691.488599999905,""reactionTime"":1},{""time"":1692.0900999999049,""reactionTime"":1.202700000047571},{""time"":1692.6932999999526,""reactionTime"":1},{""time"":1693.9232999999526,""reactionTime"":0.6010000000001128},{""time"":1694.526200000048,""reactionTime"":1},{""time"":1695.1247999999528,""reactionTime"":1},{""time"":1695.8598999998571,""reactionTime"":1}]","[0.6027999999523672,0.5999000000952037,1.8279999999999745,1.202700000047571,0.6010000000001128]","[1,1,1,1,1,1,0.6027999999523672,0.5999000000952037,1,1,1.8279999999999745,1,1.202700000047571,1,0.6010000000001128,1,1,1]","[0,0,0,0,97.59213760380435,98.30466828123983,0,0,0,0,0,0,98.03439803433352,0,0,0]",1,0.593,0.05,-0.5,5,18.37070024,0.5999,FALSE,0,1,1,1,1,,,,,,,,,,,,,,,,,,,,,
Please be patient as the study loads,6547bf8012d4702680d55663,66d895541319693e0a3a3141,66db1c8970bf01cc20c4fece,2024-09-06_10h30.03.678,RewardEffortLearning_pilot7b,2023.1.3,Win32,2.406738869,,,,,,,,,,,,,,,,,,,,,,,,,,,,,,,,,,,,,,,,,,,,0,"You reached the planet, but a space pirate already plundered all the rubies!",You did not have enough fuel to reach the planet and a space pirate already plundered all the rubies!,stim/None.png,41,,,,,,,,,,,,,,,,,,,,,,,,,,,,5,5,1,60,0,,,"[""return"",""return"",""return"",""return""]","[0.46649999999999636,0.9117000000474036,0.913499999999658,0.91470000004756]","[0.0008000001907930709,0.0009000000954983989,0.0007000000478001311,null]",95,95,0,,,"[{""time"":1731.1103999998572,""reactionTime"":1},{""time"":1731.707899999857,""reactionTime"":1},{""time"":1732.310200000048,""reactionTime"":1},{""time"":1732.917099999905,""reactionTime"":1},{""time"":1733.5387000000478,""reactionTime"":1},{""time"":1734.242700000048,""reactionTime"":3.7413000001906767},{""time"":1735.439599999905,""reactionTime"":1},{""time"":1736.077599999905,""reactionTime"":1.2360999999045816},{""time"":1736.6950999999049,""reactionTime"":1},{""time"":1737.9342999999526,""reactionTime"":0.6112000000475746},{""time"":1739.133700000048,""reactionTime"":0.6011000001431057},{""time"":1740.3502999999528,""reactionTime"":1},{""time"":1740.9492999999525,""reactionTime"":1.2189000000953456}]","[3.7413000001906767,1.2360999999045816,0.6112000000475746,0.6011000001431057,1.2189000000953456]","[1,1,1,1,1,3.7413000001906767,1,1.2360999999045816,1,0.6112000000475746,0.6011000001431057,1,1.2189000000953456]","[0,0,0,0,0,0,0,0,95.52825551653058,98.0098279746301,0,0]",1,0.593,0.05,-0.5,5,16.12817362,0.6011,FALSE,0,2,2,2,1,,,,,,,,,,,,,,,,,,,,,
Please be patient as the study loads,6547bf8012d4702680d55663,66d895541319693e0a3a3141,66db1c8970bf01cc20c4fece,2024-09-06_10h30.03.678,RewardEffortLearning_pilot7b,2023.1.3,Win32,2.406738869,,,,,,,,,,,,,,,,,,,,,,,,,,,,,,,,,,,,,,,,,,,,0,"You reached the planet, but a space pirate already plundered all the rubies!",You did not have enough fuel to reach the planet and a space pirate already plundered all the rubies!,stim/None.png,47,,,,,,,,,,,,,,,,,,,,,,,,,,,,1,1,1,60,0,,,,,,60,60,0,,,"[{""time"":1745.462399999857,""reactionTime"":1},{""time"":1746.064099999905,""reactionTime"":1},{""time"":1746.6612000000478,""reactionTime"":1},{""time"":1747.8855000000003,""reactionTime"":0.6059000000955166},{""time"":1748.481099999905,""reactionTime"":1},{""time"":1749.0950000000003,""reactionTime"":1},{""time"":1749.720899999857,""reactionTime"":1},{""time"":1750.9287000000481,""reactionTime"":0.5992000000478583},{""time"":1752.133899999857,""reactionTime"":1},{""time"":1752.7375000000002,""reactionTime"":1.2107000000473818},{""time"":1753.9695000000002,""reactionTime"":0.617299999952138},{""time"":1755.2825000000003,""reactionTime"":0.7122000000476874},{""time"":1755.8750999999047,""reactionTime"":1},{""time"":1757.217599999905,""reactionTime"":0.6157000000475819},{""time"":1757.8372999999524,""reactionTime"":1}]","[0.6059000000955166,0.5992000000478583,1.2107000000473818,0.617299999952138,0.7122000000476874,0.6157000000475819]","[1,1,1,0.6059000000955166,1,1,1,0.5992000000478583,1,1.2107000000473818,0.617299999952138,0.7122000000476874,1,0.6157000000475819,1]","[0,96.83046680696204,0,0,0,98.4766584648627,0,0,94.02948404120843,70.71253070078738,0,94.4226044108781,0]",1,0.593,0.05,-0.5,5,34.95936496,0.5992,FALSE,0,3,3,3,1,,,,,,,,,,,,,,,,,,,,,
Please be patient as the study loads,6547bf8012d4702680d55663,66d895541319693e0a3a3141,66db1c8970bf01cc20c4fece,2024-09-06_10h30.03.678,RewardEffortLearning_pilot7b,2023.1.3,Win32,2.406738869,,,,,,,,,,,,,,,,,,,,,,,,,,,,,,,,,,,,,,,,,,,,1,"You reached the planet, you get 1 ruby!",You did not have enough fuel to reach the planet and missed 1 ruby!,stim/image1.png,55,,,,,,,,,,,,,,,,,,,,,,,,,,,,4,4,1,61,0,,,"[""return"",""return"",""return""]","[0.46940000009544747,0.4714000000954002,8.634500000000116]","[0.0009000000954983989,0.0007999999525054591,0.0009000000954983989]",5,5,1,,,"[{""time"":1838.2870000000003,""reactionTime"":1},{""time"":1838.8897999999526,""reactionTime"":1},{""time"":1839.4872000000478,""reactionTime"":1},{""time"":1840.0830999999048,""reactionTime"":1},{""time"":1840.6772999999525,""reactionTime"":1},{""time"":1841.287200000048,""reactionTime"":1},{""time"":1842.508700000048,""reactionTime"":1},{""time"":1843.1165999999048,""reactionTime"":1},{""time"":1843.7125,""reactionTime"":1.821900000095411},{""time"":1844.9283999998574,""reactionTime"":0.5987999999524618},{""time"":1846.243399999857,""reactionTime"":0.6114999999999782},{""time"":1847.4438999998574,""reactionTime"":0.5912999999522981},{""time"":1848.0662999999527,""reactionTime"":1},{""time"":1849.2778999998573,""reactionTime"":1},{""time"":1849.9000999999048,""reactionTime"":1.2329999999997199},{""time"":1850.5123999998573,""reactionTime"":1},{""time"":1851.7250000000004,""reactionTime"":0.6047999999523199}]","[1.821900000095411,0.5987999999524618,0.6114999999999782,0.5912999999522981,1.2329999999997199,0.6047999999523199]","[1,1,1,1,1,1,1,1,1.821900000095411,0.5987999999524618,0.6114999999999782,0.5912999999522981,1,1,1.2329999999997199,1,0.6047999999523199]","[0,0,0,0,0,0,0,98.57493858658172,95.45454545451499,100,0,0,0,0,97.10073711241566]",1,0.593,0.05,-0.5,5,26.07534808,0.5913,FALSE,0,4,4,4,1,,,,,,,,,,,,,,,,,,,,,
Please be patient as the study loads,6547bf8012d4702680d55663,66d895541319693e0a3a3141,66db1c8970bf01cc20c4fece,2024-09-06_10h30.03.678,RewardEffortLearning_pilot7b,2023.1.3,Win32,2.406738869,,,,,,,,,,,,,,,,,,,,,,,,,,,,,,,,,,,,,,,,,,,,1,"You reached the planet, you get 1 ruby!",You did not have enough fuel to reach the planet and missed 1 ruby!,stim/image1.png,37,,,,,,,,,,,,,,,,,,,,,,,,,,,,1,1,2,62,0,,,,,,15,15,1,,,"[{""time"":1857.1572000000479,""reactionTime"":1},{""time"":1858.3485,""reactionTime"":1},{""time"":1858.9692000000477,""reactionTime"":1.2214000000949454},{""time"":1859.6767999999524,""reactionTime"":1},{""time"":1860.8970000000004,""reactionTime"":1},{""time"":1861.4935000000005,""reactionTime"":1.2142999999523454},{""time"":1862.0990000000002,""reactionTime"":1},{""time"":1862.7102000000477,""reactionTime"":1},{""time"":1863.314599999905,""reactionTime"":1},{""time"":1864.5177999999528,""reactionTime"":1},{""time"":1865.115200000048,""reactionTime"":1.1901000001430475},{""time"":1865.7133999998573,""reactionTime"":1},{""time"":1866.9265000000005,""reactionTime"":0.6065000000003238},{""time"":1867.5292000000481,""reactionTime"":1}]","[1.2214000000949454,1.2142999999523454,1.1901000001430475,0.6065000000003238]","[1,1,1.2214000000949454,1,1,1.2142999999523454,1,1,1,1,1.1901000001430475,1,0.6065000000003238,1]","[0,0,0,0,0,0,0,0,0,0,0,96.28089061750633,0]",1,0.5913,0.05,-0.5,5,7.406222355,0.6065,FALSE,0,5,5,5,1,,,,,,,,,,,,,,,,,,,,,
Please be patient as the study loads,6547bf8012d4702680d55663,66d895541319693e0a3a3141,66db1c8970bf01cc20c4fece,2024-09-06_10h30.03.678,RewardEffortLearning_pilot7b,2023.1.3,Win32,2.406738869,,,,,,,,,,,,,,,,,,,,,,,,,,,,,,,,,,,,,,,,,,,,1,"You reached the planet, you get 1 ruby!",You did not have enough fuel to reach the planet and missed 1 ruby!,stim/image1.png,41,,,,,,,,,,,,,,,,,,,,,,,,,,,,3,3,2,63,0,,,"[""return"",""return"",""return""]","[2.691099999904509,5.860999999999876,5.862900000095578]","[0.0009000000954983989,0.0007999999525054591,null]",55,55,1,,,"[{""time"":1897.4513999998571,""reactionTime"":1},{""time"":1898.0445000000004,""reactionTime"":1},{""time"":1898.6500999999048,""reactionTime"":1},{""time"":1899.371700000048,""reactionTime"":1},{""time"":1900.0047999999524,""reactionTime"":1},{""time"":1900.607399999857,""reactionTime"":1},{""time"":1901.2277000000481,""reactionTime"":1},{""time"":1902.5552999999527,""reactionTime"":1},{""time"":1903.1520999999047,""reactionTime"":1.3074999999998909},{""time"":1903.761399999857,""reactionTime"":1},{""time"":1905.0092000000482,""reactionTime"":1},{""time"":1905.6060000000002,""reactionTime"":1},{""time"":1906.2173999998572,""reactionTime"":1},{""time"":1906.8392999999528,""reactionTime"":1},{""time"":1907.4518999998572,""reactionTime"":3.0713999998570216},{""time"":1908.1527999999525,""reactionTime"":1},{""time"":1908.7557999999526,""reactionTime"":1},{""time"":1909.358700000048,""reactionTime"":1},{""time"":1909.9787000000479,""reactionTime"":1},{""time"":1910.596399999857,""reactionTime"":1},{""time"":1911.2100999999047,""reactionTime"":1},{""time"":1911.8223999998572,""reactionTime"":1},{""time"":1912.428099999905,""reactionTime"":1}]","[1.3074999999998909,3.0713999998570216]","[1,1,1,1,1,1,1,1,1.3074999999998909,1,1,1,1,1,3.0713999998570216,1,1,1,1,1,1,1,1]","[0,0,0,0,0,0,0,0,0,0,0,0,0,0,0,0,0,0,0,0,0]",1,0.5913,0.05,-0.5,5,0,1,FALSE,0,6,6,6,1,,,,,,,,,,,,,,,,,,,,,
Please be patient as the study loads,6547bf8012d4702680d55663,66d895541319693e0a3a3141,66db1c8970bf01cc20c4fece,2024-09-06_10h30.03.678,RewardEffortLearning_pilot7b,2023.1.3,Win32,2.406738869,,,,,,,,,,,,,,,,,,,,,,,,,,,,,,,,,,,,,,,,,,,,1,"You reached the planet, you get 1 ruby!",You did not have enough fuel to reach the planet and missed 1 ruby!,stim/image1.png,38,,,,,,,,,,,,,,,,,,,,,,,,,,,,6,6,2,64,0,,,,,,75,75,1,,,"[{""time"":1916.7422999999526,""reactionTime"":1},{""time"":1917.3430000000003,""reactionTime"":1},{""time"":1917.9497000000479,""reactionTime"":1},{""time"":1918.550599999905,""reactionTime"":1},{""time"":1919.1535000000003,""reactionTime"":1},{""time"":1920.3780000000002,""reactionTime"":0.617299999952138},{""time"":1920.9992999999527,""reactionTime"":1},{""time"":1922.213200000048,""reactionTime"":0.6179000000952328},{""time"":1923.4283999998574,""reactionTime"":0.5961999998094143},{""time"":1924.615700000048,""reactionTime"":0.5897000000477419},{""time"":1925.8182999999526,""reactionTime"":0.6080000000001746},{""time"":1927.0315999999048,""reactionTime"":1},{""time"":1927.626099999905,""reactionTime"":1.2087999999521344},{""time"":1928.8292999999526,""reactionTime"":0.6042999999522181},{""time"":1929.419200000048,""reactionTime"":1}]","[0.617299999952138,0.6179000000952328,0.5961999998094143,0.5897000000477419,0.6080000000001746,1.2087999999521344,0.6042999999522181]","[1,1,1,1,1,0.617299999952138,1,0.6179000000952328,0.5961999998094143,0.5897000000477419,0.6080000000001746,1,1.2087999999521344,0.6042999999522181,1]","[0,0,0,93.63836555008433,0,93.49155856622704,98.80107661939215,100,95.91387324543005,0,0,96.81918277504217,0]",1,0.5913,0.05,-0.5,6,44.51261975,0.5897,TRUE,0,7,7,7,1,,,,,,,,,,,,,,,,,,,,,
Please be patient as the study loads,6547bf8012d4702680d55663,66d895541319693e0a3a3141,66db1c8970bf01cc20c4fece,2024-09-06_10h30.03.678,RewardEffortLearning_pilot7b,2023.1.3,Win32,2.406738869,,,,,,,,,,,,,,,,,,,,,,,,,,,,,,,,,,,,,,,,,,,,1,"You reached the planet, you get 1 ruby!",You did not have enough fuel to reach the planet and missed 1 ruby!,stim/image1.png,40,,,,,,,,,,,,,,,,,,,,,,,,,,,,2,2,2,65,0,,,"[""return"",""return""]","[0.47650000000021464,2.7296000001429093]","[null,null]",25,25,1,,,"[{""time"":1958.5773999998573,""reactionTime"":1},{""time"":1959.191200000048,""reactionTime"":1},{""time"":1959.8030000000003,""reactionTime"":1},{""time"":1961.0310000000004,""reactionTime"":0.6117000000476764},{""time"":1961.6477999999524,""reactionTime"":1},{""time"":1962.2558999998573,""reactionTime"":1},{""time"":1963.488099999905,""reactionTime"":0.6167000000477856},{""time"":1964.1042999999527,""reactionTime"":1},{""time"":1965.3232999999527,""reactionTime"":1},{""time"":1966.0542999999525,""reactionTime"":1},{""time"":1966.667399999857,""reactionTime"":1},{""time"":1967.301200000048,""reactionTime"":2.5816000001432258},{""time"":1967.9962999999525,""reactionTime"":1},{""time"":1969.2218999998572,""reactionTime"":1},{""time"":1969.8423999998572,""reactionTime"":1},{""time"":1970.468099999905,""reactionTime"":1.8605999999049345}]","[0.6117000000476764,0.6167000000477856,2.5816000001432258,1.8605999999049345]","[1,1,1,0.6117000000476764,1,1,0.6167000000477856,1,1,1,1,2.5816000001432258,1,1,1,1.8605999999049345]","[0,94.63806970448589,0,0,93.41944918274791,0,0,0,0,0,0,0,0,0]",1,0.5897,0.05,-0.5,6,13.43267992,0.6117,FALSE,0,8,8,8,1,,,,,,,,,,,,,,,,,,,,,
Please be patient as the study loads,6547bf8012d4702680d55663,66d895541319693e0a3a3141,66db1c8970bf01cc20c4fece,2024-09-06_10h30.03.678,RewardEffortLearning_pilot7b,2023.1.3,Win32,2.406738869,,,,,,,,,,,,,,,,,,,,,,,,,,,,,,,,,,,,,,,,,,,,0,"You reached the planet, but a space pirate already plundered all the rubies!",You did not have enough fuel to reach the planet and a space pirate already plundered all the rubies!,stim/None.png,63,,,,,,,,,,,,,,,,,,,,,,,,,,,,5,5,2,65,0,,,,,,60,60,1,,,"[{""time"":1974.874200000048,""reactionTime"":1},{""time"":1975.565,""reactionTime"":1},{""time"":1976.1837000000478,""reactionTime"":1},{""time"":1976.8922999999527,""reactionTime"":1},{""time"":1978.1173999998573,""reactionTime"":0.6190000000001419},{""time"":1979.3388999998574,""reactionTime"":1},{""time"":1979.957200000048,""reactionTime"":1.2338000001909677},{""time"":1981.2002999999527,""reactionTime"":1},{""time"":1981.8285,""reactionTime"":1.2504999999996471},{""time"":1983.065,""reactionTime"":1},{""time"":1983.6798999998573,""reactionTime"":1.234099999904629},{""time"":1984.2995,""reactionTime"":1},{""time"":1985.6395000000002,""reactionTime"":1},{""time"":1986.2502999999524,""reactionTime"":1},{""time"":1986.8775,""reactionTime"":1.8531000001430584},{""time"":1987.5827000000481,""reactionTime"":1}]","[0.6190000000001419,1.2338000001909677,1.2504999999996471,1.234099999904629,1.8531000001430584]","[1,1,1,1,0.6190000000001419,1,1.2338000001909677,1,1.2504999999996471,1,1.234099999904629,1,1,1,1.8531000001430584,1]","[0,0,92.85888375437258,0,0,0,0,0,0,0,0,0,0,0]",1,0.5897,0.05,-0.5,6,6.632777411,0.619,FALSE,0,9,9,9,1,,,,,,,,,,,,,,,,,,,,,
Please be patient as the study loads,6547bf8012d4702680d55663,66d895541319693e0a3a3141,66db1c8970bf01cc20c4fece,2024-09-06_10h30.03.678,RewardEffortLearning_pilot7b,2023.1.3,Win32,2.406738869,,,,,,,,,,,,,,,,,,,,,,,,,,,,,,,,,,,,,,,,,,,,0,"You reached the planet, but a space pirate already plundered all the rubies!",You did not have enough fuel to reach the planet and a space pirate already plundered all the rubies!,stim/None.png,63,,,,,,,,,,,,,,,,,,,,,,,,,,,,3,3,2,65,0,,,"[""return"",""return"",""return""]","[1.3776000001430475,7.310400000095342,7.312800000190691]","[null,0.0012999999521525751,null]",20,20,1,,,"[{""time"":2049.4388999998573,""reactionTime"":1},{""time"":2050.0635,""reactionTime"":1},{""time"":2050.6798999998573,""reactionTime"":1},{""time"":2052.0290000000005,""reactionTime"":0.6271000001434004},{""time"":2052.6372999999526,""reactionTime"":1},{""time"":2053.859099999905,""reactionTime"":1},{""time"":2054.459200000048,""reactionTime"":1},{""time"":2055.062700000048,""reactionTime"":1},{""time"":2055.6787999999524,""reactionTime"":1},{""time"":2056.280700000048,""reactionTime"":3.027700000047844},{""time"":2056.928200000048,""reactionTime"":1},{""time"":2057.529200000048,""reactionTime"":1},{""time"":2058.731099999905,""reactionTime"":0.6030999999047708},{""time"":2059.9565000000002,""reactionTime"":0.61520000004748},{""time"":2060.5585,""reactionTime"":1},{""time"":2061.855599999905,""reactionTime"":0.694999999999709}]","[0.6271000001434004,3.027700000047844,0.6030999999047708,0.61520000004748,0.694999999999709]","[1,1,1,0.6271000001434004,1,1,1,1,1,3.027700000047844,1,1,0.6030999999047708,0.61520000004748,1,0.694999999999709]","[0,90.8847184742846,0,0,0,0,0,0,0,0,96.73409703665901,93.78503533933579,0,74.33585182446512]",1,0.5897,0.05,-0.5,6,25.40997876,0.6031,FALSE,0,10,10,10,1,,,,,,,,,,,,,,,,,,,,,
Please be patient as the study loads,6547bf8012d4702680d55663,66d895541319693e0a3a3141,66db1c8970bf01cc20c4fece,2024-09-06_10h30.03.678,RewardEffortLearning_pilot7b,2023.1.3,Win32,2.406738869,,,,,,,,,,,,,,,,,,,,,,,,,,,,,,,,,,,,,,,,,,,,1,"You reached the planet, you get 1 ruby!",You did not have enough fuel to reach the planet and missed 1 ruby!,stim/image1.png,72,,,,,,,,,,,,,,,,,,,,,,,,,,,,6,6,2,66,0,,,,,,25,25,1,,,"[{""time"":2066.2693999998573,""reactionTime"":1},{""time"":2066.8855000000003,""reactionTime"":1},{""time"":2067.481099999905,""reactionTime"":1},{""time"":2068.6877999999524,""reactionTime"":1},{""time"":2069.2925999999047,""reactionTime"":1.1998999998568252},{""time"":2070.4937000000477,""reactionTime"":0.5909999999998945},{""time"":2071.7110000000002,""reactionTime"":1},{""time"":2072.4222999999524,""reactionTime"":1.3229999999998654},{""time"":2073.0200999999047,""reactionTime"":1},{""time"":2073.6232000000477,""reactionTime"":1},{""time"":2074.8342999999527,""reactionTime"":0.6054000000954147},{""time"":2076.1560000000004,""reactionTime"":1},{""time"":2076.774099999905,""reactionTime"":1},{""time"":2077.3765000000003,""reactionTime"":1.942600000143102},{""time"":2078.0787999999525,""reactionTime"":1}]","[1.1998999998568252,0.5909999999998945,1.3229999999998654,0.6054000000954147,1.942600000143102]","[1,1,1,1,1.1998999998568252,0.5909999999998945,1,1.3229999999998654,1,1,0.6054000000954147,1,1,1.942600000143102,1]","[0,0,0,99.68315867601662,0,0,0,0,96.17353155020726,0,0,0,0]",1,0.5897,0.05,-0.5,6,15.06589925,0.591,FALSE,0,11,11,11,1,,,,,,,,,,,,,,,,,,,,,
Please be patient as the study loads,6547bf8012d4702680d55663,66d895541319693e0a3a3141,66db1c8970bf01cc20c4fece,2024-09-06_10h30.03.678,RewardEffortLearning_pilot7b,2023.1.3,Win32,2.406738869,,,,,,,,,,,,,,,,,,,,,,,,,,,,,,,,,,,,,,,,,,,,0,"You reached the planet, but a space pirate already plundered all the rubies!",You did not have enough fuel to reach the planet and a space pirate already plundered all the rubies!,stim/None.png,80,,,,,,,,,,,,,,,,,,,,,,,,,,,,7,7,2,66,0,,,"[""return"",""return"",""return""]","[0.01910000014322577,5.439499999999953,5.441700000047604]","[0.0008999998567560397,0.0012000000479019945,null]",95,95,1,,,"[{""time"":2093.8805,""reactionTime"":1},{""time"":2094.4730000000004,""reactionTime"":1},{""time"":2095.074099999905,""reactionTime"":1},{""time"":2096.2988999998574,""reactionTime"":0.6265000000003056},{""time"":2096.9163999998573,""reactionTime"":1},{""time"":2098.1225000000004,""reactionTime"":1},{""time"":2098.7242999999526,""reactionTime"":1},{""time"":2099.3363999998573,""reactionTime"":1.8198999998571708},{""time"":2100.548099999905,""reactionTime"":0.6092999999523272},{""time"":2101.1415,""reactionTime"":1},{""time"":2102.3448999998573,""reactionTime"":0.6041999998092251},{""time"":2103.566099999905,""reactionTime"":0.5987999999524618},{""time"":2104.778099999905,""reactionTime"":0.6060999999044725},{""time"":2106.0768999998572,""reactionTime"":1}]","[0.6265000000003056,1.8198999998571708,0.6092999999523272,0.6041999998092251,0.5987999999524618,0.6060999999044725]","[1,1,1,0.6265000000003056,1,1,1,1.8198999998571708,0.6092999999523272,1,0.6041999998092251,0.5987999999524618,0.6060999999044725,1]","[0,91.03095297176563,0,0,0,0,95.22300757814625,0,96.4660005451693,97.78211067370735,96.00292472370488,0]",1,0.5897,0.05,-0.5,6,39.70874971,0.5988,FALSE,0,12,12,12,1,,,,,,,,,,,,,,,,,,,,,
Please be patient as the study loads,6547bf8012d4702680d55663,66d895541319693e0a3a3141,66db1c8970bf01cc20c4fece,2024-09-06_10h30.03.678,RewardEffortLearning_pilot7b,2023.1.3,Win32,2.406738869,,,,,,,,,,,,,,,,,,,,,,,,,,,,,,,,,,,,,,,,,,,,1,"You reached the planet, you get 1 ruby!",You did not have enough fuel to reach the planet and missed 1 ruby!,stim/image1.png,82,,,,,,,,,,,,,,,,,,,,,,,,,,,,1,1,3,67,0,,,,,,100,100,1,,,"[{""time"":2110.8440999999048,""reactionTime"":1},{""time"":2111.4438999998574,""reactionTime"":1},{""time"":2112.0582999999524,""reactionTime"":1},{""time"":2112.656899999857,""reactionTime"":1},{""time"":2113.9852999999525,""reactionTime"":1},{""time"":2114.5827999999524,""reactionTime"":1},{""time"":2115.180599999905,""reactionTime"":1},{""time"":2115.791,""reactionTime"":1},{""time"":2116.396599999905,""reactionTime"":3.0218999998569416},{""time"":2116.9965,""reactionTime"":1},{""time"":2118.1907999999526,""reactionTime"":1},{""time"":2118.8030000000003,""reactionTime"":1},{""time"":2119.5000000000005,""reactionTime"":1},{""time"":2120.1162999999524,""reactionTime"":1},{""time"":2120.7320000000004,""reactionTime"":3.135299999952622},{""time"":2121.9382999999525,""reactionTime"":1},{""time"":2122.534399999857,""reactionTime"":1},{""time"":2123.152599999905,""reactionTime"":1},{""time"":2123.866599999905,""reactionTime"":2.530799999952251}]","[3.0218999998569416,3.135299999952622,2.530799999952251]","[1,1,1,1,1,1,1,1,3.0218999998569416,1,1,1,1,1,3.135299999952622,1,1,1,2.530799999952251]","[0,0,0,0,0,0,0,0,0,0,0,0,0,0,0,0,0]",1,0.5897,0.05,-0.5,6,0,1,FALSE,0,13,13,13,1,,,,,,,,,,,,,,,,,,,,,
Please be patient as the study loads,6547bf8012d4702680d55663,66d895541319693e0a3a3141,66db1c8970bf01cc20c4fece,2024-09-06_10h30.03.678,RewardEffortLearning_pilot7b,2023.1.3,Win32,2.406738869,,,,,,,,,,,,,,,,,,,,,,,,,,,,,,,,,,,,,,,,,,,,2,"You reached the planet, you get 2 rubies!",You did not have enough fuel to reach the planet and missed 2 rubies!,stim/image2.png,80,,,,,,,,,,,,,,,,,,,,,,,,,,,,1,1,3,69,0,,,"[""return"",""return""]","[0.014499999999770807,1.3560999999044725]","[null,0.0011000001431966666]",10,10,1,,,"[{""time"":2146.658399999857,""reactionTime"":1},{""time"":2147.2718999998574,""reactionTime"":1},{""time"":2147.973399999857,""reactionTime"":1},{""time"":2148.583200000048,""reactionTime"":1},{""time"":2149.1868999998574,""reactionTime"":1},{""time"":2150.3923999998574,""reactionTime"":1},{""time"":2150.9968999998573,""reactionTime"":1.1990000000000691},{""time"":2152.2043999998573,""reactionTime"":1},{""time"":2152.812399999857,""reactionTime"":1.2183999998569561},{""time"":2153.4235000000003,""reactionTime"":1},{""time"":2154.6468999998574,""reactionTime"":0.6023999998569707},{""time"":2155.862,""reactionTime"":0.6102999999520762},{""time"":2157.158099999905,""reactionTime"":0.599399999857269},{""time"":2157.755399999857,""reactionTime"":1},{""time"":2158.977200000048,""reactionTime"":0.6234000000954438},{""time"":2159.575099999905,""reactionTime"":1}]","[1.1990000000000691,1.2183999998569561,0.6023999998569707,0.6102999999520762,0.599399999857269,0.6234000000954438]","[1,1,1,1,1,1,1.1990000000000691,1,1.2183999998569561,1,0.6023999998569707,0.6102999999520762,0.599399999857269,1,0.6234000000954438,1]","[0,0,0,0,0,0,0,0,96.90470392134864,94.97928347386517,97.63587623430277,0,91.78649767203919,0]",1,0.5897,0.05,-0.5,6,27.23616866,0.5994,FALSE,0,14,14,14,1,,,,,,,,,,,,,,,,,,,,,
