--,prolific_id,study_id,session_id,date,expName,psychopyVersion,OS,frameRate,key_resp_3.keys,key_resp_3.rt,key_resp_3.duration,main_start_keys_3.keys,main_start_keys_3.rt,main_start_keys_3.duration,trial_score_pract,total_score_pract,treshold_pract,trial_duration_pract,nr_of_incr_pract,threshold_reached,time_sequence,mintime_sequence_all,mintime_pract at t,rtArray,practicetrials.thisRepN,practicetrials.thisTrialN,practicetrials.thisN,practicetrials.thisIndex,practicetrials.ran,practPumps,effTresh,pract_img_keys.keys,pract_img_keys.rt,pract_img_keys.duration,reactionTimes_pract2,reactionTimesData_pract2,averageReactionTimesData_pract2,rtPercentageData_pract2,maxTime_pract2,minTime_pract2,maxPosBar_pract2,minPosBar_pract2,Accum points 2nd practice,percentage of bar reached_pract2,achieved_pract2,effLevel_pract2,practicetrials_2.thisRepN,practicetrials_2.thisTrialN,practicetrials_2.thisN,practicetrials_2.thisIndex,practicetrials_2.ran,Points,FeedbackText1,FeedbackText2,stimFile,effLevel,quiz_info_keys.keys,quiz_info_keys.rt,quiz_info_keys.duration,quizinfo.thisRepN,quizinfo.thisTrialN,quizinfo.thisN,quizinfo.thisIndex,quizinfo.ran,correct,response,quiz_score,next_quest.keys,next_quest.rt,next_quest.duration,instructionquiz.thisRepN,instructionquiz.thisTrialN,instructionquiz.thisN,instructionquiz.thisIndex,instructionquiz.ran,correctResp,question,resp1,resp2,resp3,main_start_keys.keys,main_start_keys.rt,main_start_keys.duration,rewRating,AnchorRewRating,AccuracyRewardRating,PossiblePointsSoFar,AccumulatedPointsSoFar,reward.response,reward.rt,login_reward.keys,login_reward.rt,login_reward.duration,effRating,AnchorEffRating,AccuracyEffortRating,slider.response,slider.rt,reactionTimes,reactionTimesData,averageReactionTimesData,rtPercentageData,maxTime,minTime,maxPosBar,minPosBar,Accum points main trials,percentage of bar reached,minimum RT on current trial,achieved,trials.thisRepN,trials.thisTrialN,trials.thisN,trials.thisIndex,trials.ran,end_break.keys,blocks.thisRepN,blocks.thisTrialN,blocks.thisN,blocks.thisIndex,blocks.ran,BlockNumber,TrialFile,TotalBlockNumber,bonusPayment,task_duration,end_key.keys,end_key.rt,end_key.duration,end.thisRepN,end.thisTrialN,end.thisN,end.thisIndex,end.ran
Please be patient as the study loads,600319e3a3b1a337cab57a3e,66d895541319693e0a3a3141,66db1c8051ac695591593517,2024-09-06_11h19.10.675,RewardEffortLearning_pilot7b,2023.1.3,Win32,7.486711088,,,,,,,,,,,,,,,,,,,,,,,,,,,,,,,,,,,,,,,,,,,,,,,,,,,,,,,,,,,,,,,,,,,,,,,,,,,,,,,,,,,,,,,,,,,,,,,,,,,,,,,,,,,,,,,,,,,,,,,,,,,,,,
Please be patient as the study loads,600319e3a3b1a337cab57a3e,66d895541319693e0a3a3141,66db1c8051ac695591593517,2024-09-06_11h19.10.675,RewardEffortLearning_pilot7b,2023.1.3,Win32,7.486711088,return,76.1079,,,,,,,,,,,,,,,,,,,,,,,,,,,,,,,,,,,,,,,,,,,,,,,,,,,,,,,,,,,,,,,,,,,,,,,,,,,,,,,,,,,,,,,,,,,,,,,,,,,,,,,,,,,,,,,,,,,,,,,,,,,,
Please be patient as the study loads,600319e3a3b1a337cab57a3e,66d895541319693e0a3a3141,66db1c8051ac695591593517,2024-09-06_11h19.10.675,RewardEffortLearning_pilot7b,2023.1.3,Win32,7.486711088,,,,"[""return""]",[15.068900000095368],[null],,,,,,,,,,,,,,,,,,,,,,,,,,,,,,,,,,,,,,,,,,,,,,,,,,,,,,,,,,,,,,,,,,,,,,,,,,,,,,,,,,,,,,,,,,,,,,,,,,,,,,,,,,,,,,,,,,,,,,,,
Please be patient as the study loads,600319e3a3b1a337cab57a3e,66d895541319693e0a3a3141,66db1c8051ac695591593517,2024-09-06_11h19.10.675,RewardEffortLearning_pilot7b,2023.1.3,Win32,7.486711088,,,,,,,,,,,,,,,,,,,,,,,,,,,,,,,,,,,,,,,,,,,,,,,,,,,,,,,,,,,,,,,,,,,,,,,,,,,,,,,,,,,,,,,,,,,,,,,,,,,,,,,,,,,,,,,,,,,,,,,,,,,,,,
Please be patient as the study loads,600319e3a3b1a337cab57a3e,66d895541319693e0a3a3141,66db1c8051ac695591593517,2024-09-06_11h19.10.675,RewardEffortLearning_pilot7b,2023.1.3,Win32,7.486711088,,,,,,,,0,-0.36,11.3681,10,FALSE,"[[0.4762999997138877,0.21110000038152066,0.24349999999998317,1.4569999999999936,0.2082000002861264,0.41840000009534606,0.2065999999045971,0.20969999980923149,0.20549999999997226,0.41189999961852664]]",[0.20549999999997226],0.2055,"[0.4762999997138877,0.21110000038152066,0.24349999999998317,1.4569999999999936,0.2082000002861264,0.41840000009534606,0.2065999999045971,0.20969999980923149,0.20549999999997226,0.41189999961852664]",0,0,0,0,1,25,-0.36,,,,,,,,,,,,,,,,,,,,,,,,,,,,,,,,,,,,,,,,,,,,,,,,,,,,,,,,,,,,,,,,,,,,,,,,,,,,,,,,,,,,,,,,,,,,,,,,,,,,,,,
Please be patient as the study loads,600319e3a3b1a337cab57a3e,66d895541319693e0a3a3141,66db1c8051ac695591593517,2024-09-06_11h19.10.675,RewardEffortLearning_pilot7b,2023.1.3,Win32,7.486711088,,,,,,,,0,-0.22,11.1719,10,FALSE,"[[0.6172000002860614,0.41240000009537425,0.41100000000000136,0.4104000000953647,0.4115999999045812,0.20669999980924558,0.20609999990460892,0.41550000000000864,0.6175000000000068,0.4151999998092606]]","[0.20549999999997226,0.20609999990460892]",0.2055,"[0.6172000002860614,0.41240000009537425,0.41100000000000136,0.4104000000953647,0.4115999999045812,0.20669999980924558,0.20609999990460892,0.41550000000000864,0.6175000000000068,0.4151999998092606]",0,1,1,1,1,50,-0.22,,,,,,,,,,,,,,,,,,,,,,,,,,,,,,,,,,,,,,,,,,,,,,,,,,,,,,,,,,,,,,,,,,,,,,,,,,,,,,,,,,,,,,,,,,,,,,,,,,,,,,,
Please be patient as the study loads,600319e3a3b1a337cab57a3e,66d895541319693e0a3a3141,66db1c8051ac695591593517,2024-09-06_11h19.10.675,RewardEffortLearning_pilot7b,2023.1.3,Win32,7.486711088,,,,,,,,0,0.05,10.1172,11,FALSE,"[[0.828599999904668,0.4146999998092724,0.20669999980930243,0.41060000038146427,0.6315000000000168,0.41130000019069257,1.4410999999046226,0.6184000000953915,0.2081000003814779,0.2058999996185662,0.41120000028610093]]","[0.20549999999997226,0.20609999990460892,0.2058999996185662]",0.2055,"[0.828599999904668,0.4146999998092724,0.20669999980930243,0.41060000038146427,0.6315000000000168,0.41130000019069257,1.4410999999046226,0.6184000000953915,0.2081000003814779,0.2058999996185662,0.41120000028610093]",0,2,2,2,1,100,0.05,,,,,,,,,,,,,,,,,,,,,,,,,,,,,,,,,,,,,,,,,,,,,,,,,,,,,,,,,,,,,,,,,,,,,,,,,,,,,,,,,,,,,,,,,,,,,,,,,,,,,,,
Please be patient as the study loads,600319e3a3b1a337cab57a3e,66d895541319693e0a3a3141,66db1c8051ac695591593517,2024-09-06_11h19.10.675,RewardEffortLearning_pilot7b,2023.1.3,Win32,7.486711088,,,,,,,,,,,,,,,,,,,,,,,,"[""return""]",[23.89830000019083],[0.0001999998091832822],"[{""time"":406.2464000000955,""reactionTime"":1},{""time"":406.8207999997139,""reactionTime"":1},{""time"":407.4317999997139,""reactionTime"":1},{""time"":408.039299999714,""reactionTime"":1},{""time"":408.65219999980934,""reactionTime"":1},{""time"":409.30109999990475,""reactionTime"":1},{""time"":409.91690000009544,""reactionTime"":1},{""time"":410.52700000000004,""reactionTime"":1},{""time"":411.1391999998093,""reactionTime"":1},{""time"":411.69569999980934,""reactionTime"":1},{""time"":412.2201999998093,""reactionTime"":1},{""time"":412.9099000000955,""reactionTime"":1},{""time"":413.52709999990475,""reactionTime"":1},{""time"":414.14719999980935,""reactionTime"":1},{""time"":414.7554000000954,""reactionTime"":1},{""time"":415.361799999714,""reactionTime"":1},{""time"":415.9705,""reactionTime"":1},{""time"":416.5766999998093,""reactionTime"":1},{""time"":417.0164000000955,""reactionTime"":0.2029000000953829},{""time"":417.42140000009545,""reactionTime"":0.20270000028608592},{""time"":417.836299999714,""reactionTime"":0.210299999713925},{""time"":418.6441999998093,""reactionTime"":1},{""time"":419.2585,""reactionTime"":1},{""time"":419.8661999998093,""reactionTime"":1},{""time"":420.476299999714,""reactionTime"":1},{""time"":421.082799999714,""reactionTime"":1},{""time"":421.6885999999047,""reactionTime"":1},{""time"":422.294299999714,""reactionTime"":1},{""time"":422.9029000000954,""reactionTime"":1},{""time"":423.1059000000954,""reactionTime"":5.067200000286107},{""time"":423.7125000000001,""reactionTime"":1},{""time"":424.11819999980935,""reactionTime"":0.2022999997138868},{""time"":424.524299999714,""reactionTime"":0.2031999998092715},{""time"":425.5380999999047,""reactionTime"":1},{""time"":425.7411999998093,""reactionTime"":0.8109000000953301},{""time"":426.55109999990475,""reactionTime"":1}]","[0.2029000000953829,0.20270000028608592,0.210299999713925,5.067200000286107,0.2022999997138868,0.2031999998092715,0.8109000000953301]","[1,1,1,1,1,1,1,1,1,1,1,1,1,1,1,1,1,1,1,1,1,1,1,1,1,1,1,1,1,1,1,1,1,1,1,1,1,1,1,1,1,1,1,1,1,1,1,1,1,0.6014500000476914,0.2029000000953829,0.2028000001907344,0.20270000028608592,0.20650000000000546,0.210299999713925,0.210299999713925,1,1,1,1,1,1,1,1,1,1,1,1,1,1,1,1,1,1,1,1,1,1,3.0336000001430534,3.0336000001430534,5.067200000286107,1,1,0.6011499998569434,0.2022999997138868,0.20274999976157915,0.2031999998092715,0.2031999998092715,1,0.9054500000476651,0.9054500000476651,0.8109000000953301,1,1,1]","[0,0,0,0,0,0,0,0,0,0,0,0,0,0,0,0,0,0,0,0,0,0,0,0,0,0,0,0,0,0,0,0,0,0,0,0,0,0,0,0,0,0,0,0,0,50.16362491532973,100,100,100,99.8741346758926,99.39584648030805,99.39584648030805,0,0,0,0,0,0,0,0,0,0,0,0,0,0,0,0,0,0,0,0,0,0,0,0,0,0,0,50.20138453656925,100,100,100,100,0,11.900566387958666,11.900566387958666,23.801132775917345,0,0,0]",1,0.2055,0.05,-0.5,0,12.60036377,FALSE,75,0,0,0,0,1,1,"You reached the planet, you get 1 ruby!",You did not have enough fuel to reach the planet and missed 1 ruby!,stim/image1.png,75,,,,,,,,,,,,,,,,,,,,,,,,,,,,,,,,,,,,,,,,,,,,,,,,,,,,,,,,,,,,,,,,,,,,,,,,,,,,,,
Please be patient as the study loads,600319e3a3b1a337cab57a3e,66d895541319693e0a3a3141,66db1c8051ac695591593517,2024-09-06_11h19.10.675,RewardEffortLearning_pilot7b,2023.1.3,Win32,7.486711088,,,,,,,,,,,,,,,,,,,,,,,,,,,"[{""time"":434.8269000000954,""reactionTime"":1},{""time"":435.43009999990466,""reactionTime"":1},{""time"":436.0445000000001,""reactionTime"":1},{""time"":436.65200000000004,""reactionTime"":0.2032000002860741},{""time"":437.2585,""reactionTime"":0.40430000019068757},{""time"":438.06509999990465,""reactionTime"":1},{""time"":438.67009999990466,""reactionTime"":1},{""time"":439.28069999980937,""reactionTime"":1},{""time"":439.6840000000001,""reactionTime"":2.2238000001907494},{""time"":440.0876999998094,""reactionTime"":0.20109999990472716},{""time"":440.4910999999047,""reactionTime"":0.20169999980930697},{""time"":440.90269999980933,""reactionTime"":0.2031999998092715},{""time"":441.50679999971396,""reactionTime"":1},{""time"":442.68579999971394,""reactionTime"":0.6725000000000136},{""time"":443.7270999999047,""reactionTime"":1},{""time"":444.25240000009546,""reactionTime"":1},{""time"":444.927,""reactionTime"":1.7394000000953156},{""time"":446.0056999998093,""reactionTime"":0.4636999998092506}]","[0.2032000002860741,0.40430000019068757,2.2238000001907494,0.20109999990472716,0.20169999980930697,0.2031999998092715,0.6725000000000136,1.7394000000953156,0.4636999998092506]","[1,1,1,1,1,1,1,1,1,0.2032000002860741,0.2032000002860741,0.2032000002860741,0.40430000019068757,0.40430000019068757,0.40430000019068757,1,1,1,1,1,1,1,1,1.6119000000953747,2.2238000001907494,1.2124500000477383,0.20109999990472716,0.20139999985701706,0.20169999980930697,0.20244999980928924,0.2031999998092715,0.2031999998092715,1,1,0.6725000000000136,0.6725000000000136,1,1,1,1,1,1.7394000000953156,1.7394000000953156,0.4636999998092506,0.4636999998092506]","[0,0,0,0,99.8871755582469,99.8871755582469,99.8871755582469,74.67719689051661,74.67719689051661,74.67719689051661,0,0,0,0,0,0,0,0,0,0,0,100,100,100,99.98119592636974,99.88717561801906,99.88717561801906,0,0,41.055534647426484,41.055534647426484,0,0,0,0,0,0,0,67.23078851678491,67.23078851678491]",1,0.2023,0.05,-0.5,0,33.50053277,FALSE,75,0,1,1,1,1,0,"You reached the planet, but there were no rubies!",You did not have enough fuel to reach the planet and missed 0 rubies!,stim/None.png,75,,,,,,,,,,,,,,,,,,,,,,,,,,,,,,,,,,,,,,,,,,,,,,,,,,,,,,,,,,,,,,,,,,,,,,,,,,,,,,
Please be patient as the study loads,600319e3a3b1a337cab57a3e,66d895541319693e0a3a3141,66db1c8051ac695591593517,2024-09-06_11h19.10.675,RewardEffortLearning_pilot7b,2023.1.3,Win32,7.486711088,,,,,,,,,,,,,,,,,,,,,,,,,,,"[{""time"":455.077299999714,""reactionTime"":1},{""time"":455.68159999990473,""reactionTime"":1},{""time"":456.293299999714,""reactionTime"":1},{""time"":456.898799999714,""reactionTime"":2.425599999904648},{""time"":457.7401999998093,""reactionTime"":0.6396999998091815},{""time"":458.750799999714,""reactionTime"":1},{""time"":459.1596999998094,""reactionTime"":1.0144000000954065},{""time"":459.7786999998093,""reactionTime"":0.4169000000953247},{""time"":460.99269999980936,""reactionTime"":0.6064999999999827},{""time"":461.83850000000007,""reactionTime"":0.40599999999994907},{""time"":462.649799999714,""reactionTime"":0.40459999990468987},{""time"":463.457799999714,""reactionTime"":0.40419999980929333},{""time"":464.06919999980937,""reactionTime"":0.4092999997138804},{""time"":464.6731999998093,""reactionTime"":0.40219999980922694}]","[2.425599999904648,0.6396999998091815,1.0144000000954065,0.4169000000953247,0.6064999999999827,0.40599999999994907,0.40459999990468987,0.40419999980929333,0.4092999997138804,0.40219999980922694]","[1,1,1,1,1,1,1,1,1,2.425599999904648,2.425599999904648,2.425599999904648,0.6396999998091815,0.6396999998091815,0.6396999998091815,1,1,1.0072000000477033,1.0144000000954065,1.0144000000954065,0.4169000000953247,0.4169000000953247,0.4169000000953247,0.6064999999999827,0.6064999999999827,0.6064999999999827,0.40599999999994907,0.40599999999994907,0.40599999999994907,0.40459999990468987,0.40459999990468987,0.40459999990468987,0.40419999980929333,0.40419999980929333,0.40419999980929333,0.4092999997138804,0.4092999997138804,0.4092999997138804,0.40219999980922694]","[0,0,0,0,0,0,0,0,0,0,45.099511847271366,45.099511847271366,45.099511847271366,0,0,0,0,0,72.98785828453344,72.98785828453344,72.98785828453344,49.25522592978976,49.25522592978976,49.25522592978976,74.35223431333252,74.35223431333252,74.35223431333252,74.52747528155035,74.52747528155035,74.52747528155035,74.57754413814676,74.57754413814676,74.57754413814676,73.93916638073297,73.93916638073297,73.93916638073297,74.82788836143227]",1,0.2011,0.05,-0.5,3,39.70391721,TRUE,25,0,2,2,2,1,3,"You reached the planet, you get 3 rubies!",You did not have enough fuel to reach the planet and missed 3 rubies!,stim/image3.png,25,,,,,,,,,,,,,,,,,,,,,,,,,,,,,,,,,,,,,,,,,,,,,,,,,,,,,,,,,,,,,,,,,,,,,,,,,,,,,,
Please be patient as the study loads,600319e3a3b1a337cab57a3e,66d895541319693e0a3a3141,66db1c8051ac695591593517,2024-09-06_11h19.10.675,RewardEffortLearning_pilot7b,2023.1.3,Win32,7.486711088,,,,,,,,,,,,,,,,,,,,,,,,,,,"[{""time"":473.1924000000954,""reactionTime"":1},{""time"":473.79629999971394,""reactionTime"":1},{""time"":474.40269999980933,""reactionTime"":1},{""time"":474.60419999980934,""reactionTime"":2.0159999999999627},{""time"":475.21040000009543,""reactionTime"":0.20199999999999818},{""time"":475.81519999980935,""reactionTime"":1},{""time"":476.4190999999047,""reactionTime"":1},{""time"":477.0231999998093,""reactionTime"":1},{""time"":477.6300999999047,""reactionTime"":1},{""time"":478.2409000000954,""reactionTime"":1},{""time"":478.8525000000001,""reactionTime"":1},{""time"":479.4846999998093,""reactionTime"":1},{""time"":480.2061999998093,""reactionTime"":1},{""time"":480.85850000000005,""reactionTime"":1},{""time"":481.49700000000007,""reactionTime"":1},{""time"":482.139299999714,""reactionTime"":1},{""time"":482.7454000000954,""reactionTime"":1}]","[2.0159999999999627,0.20199999999999818]","[1,1,1,1,1,1,1,1.5079999999999814,1.5079999999999814,2.0159999999999627,0.20199999999999818,0.20199999999999818,0.20199999999999818,1,1,1,1,1,1,1,1,1,1,1,1,1,1,1,1,1,1,1,1,1,1,1,1,1,1,1,1,1,1,1,1,1,1]","[0,0,0,0,0,0,0,0,99.88734508759998,99.88734508759998,99.88734508759998,0,0,0,0,0,0,0,0,0,0,0,0,0,0,0,0,0,0,0,0,0,0,0,0,0,0,0,0,0,0,0,0,0,0]",1,0.2011,0.05,-0.5,3,6.659156339,FALSE,50,0,3,3,3,1,3,"You reached the planet,  you get 2 rubies!",You did not have enough fuel to reach the planet and missed 2 rubies!,stim/image2.png,50,,,,,,,,,,,,,,,,,,,,,,,,,,,,,,,,,,,,,,,,,,,,,,,,,,,,,,,,,,,,,,,,,,,,,,,,,,,,,,
Please be patient as the study loads,600319e3a3b1a337cab57a3e,66d895541319693e0a3a3141,66db1c8051ac695591593517,2024-09-06_11h19.10.675,RewardEffortLearning_pilot7b,2023.1.3,Win32,7.486711088,,,,,,,,,,,,,,,,,,,,,,,,,,,,,,,,,,,,,,,,,,,,,,,,,"[""return""]",[16.19749999999999],[0.0003000001908048944],0,0,0,0,1,,,,,,,,,,,,,,,,,,,,,,,,,,,,,,,,,,,,,,,,,,,,,,,,,,,,,,,,,,,,,,,,,,,,,,
Please be patient as the study loads,600319e3a3b1a337cab57a3e,66d895541319693e0a3a3141,66db1c8051ac695591593517,2024-09-06_11h19.10.675,RewardEffortLearning_pilot7b,2023.1.3,Win32,7.486711088,,,,,,,,,,,,,,,,,,,,,,,,,,,,,,,,,,,,,,,,,,,,,,,,,"[""return""]",[4.619000000000028],[null],1,0,1,0,1,,,,,,,,,,,,,,,,,,,,,,,,,,,,,,,,,,,,,,,,,,,,,,,,,,,,,,,,,,,,,,,,,,,,,,
Please be patient as the study loads,600319e3a3b1a337cab57a3e,66d895541319693e0a3a3141,66db1c8051ac695591593517,2024-09-06_11h19.10.675,RewardEffortLearning_pilot7b,2023.1.3,Win32,7.486711088,,,,,,,,,,,,,,,,,,,,,,,,,,,,,,,,,,,,,,,,,,,,,,,,,,,,,,,,,TRUE,3,1,"[""return""]",[8.59269999980927],[null],0,0,0,0,1,3,How do you control your spaceship to reach each planet?,1. Press the 'z' and 'p' keys as fast as I can - energy waste does not matter.,2. Only press the 'z' key – that's how you move the spaceship.  ,3. Use the 'z' and 'p' keys to carefully fill the fuel tank close to the true threshold.,,,,,,,,,,,,,,,,,,,,,,,,,,,,,,,,,,,,,,,,,,,,,,,,,,,,,,
Please be patient as the study loads,600319e3a3b1a337cab57a3e,66d895541319693e0a3a3141,66db1c8051ac695591593517,2024-09-06_11h19.10.675,RewardEffortLearning_pilot7b,2023.1.3,Win32,7.486711088,,,,,,,,,,,,,,,,,,,,,,,,,,,,,,,,,,,,,,,,,,,,,,,,,,,,,,,,,TRUE,2,2,"[""return""]",[9.23780000019076],[0.0001999998091832822],0,1,1,2,1,2,"Throughout the game, what will change that you need to pay attention to?",1. Only the number of rubies on each planet.,2. Both the fuel needed to reach a planet and the number of rubies you can find there.,3. Only how much fuel it takes to reach each planet. ,,,,,,,,,,,,,,,,,,,,,,,,,,,,,,,,,,,,,,,,,,,,,,,,,,,,,,
Please be patient as the study loads,600319e3a3b1a337cab57a3e,66d895541319693e0a3a3141,66db1c8051ac695591593517,2024-09-06_11h19.10.675,RewardEffortLearning_pilot7b,2023.1.3,Win32,7.486711088,,,,,,,,,,,,,,,,,,,,,,,,,,,,,,,,,,,,,,,,,,,,,,,,,,,,,,,,,TRUE,1,3,"[""return""]",[3.1700000000000728],[null],0,2,2,3,1,1,"Throughout the game, does it make sense to always indicate the maximum amount of fuel?","1. No, I should adjust the fuel indication to match the true threshold. Maxing out could drain my energy before the game ends.","2. Yes, indicating the maximum is always advantageous.",3. It does not matter how much fuel I indicate.,,,,,,,,,,,,,,,,,,,,,,,,,,,,,,,,,,,,,,,,,,,,,,,,,,,,,,
Please be patient as the study loads,600319e3a3b1a337cab57a3e,66d895541319693e0a3a3141,66db1c8051ac695591593517,2024-09-06_11h19.10.675,RewardEffortLearning_pilot7b,2023.1.3,Win32,7.486711088,,,,,,,,,,,,,,,,,,,,,,,,,,,,,,,,,,,,,,,,,,,,,,,,,,,,,,,,,TRUE,2,4,"[""return""]",[3.3715999999046744],[null],0,3,3,1,1,2,"If a planet has a huge pile of rubies, that means…",1. It will need a lot of fuel to reach it.,2. The number of rubies has nothing to do with how much fuel it takes to get there.,3. It will likely be easy and quick to travel there. ,,,,,,,,,,,,,,,,,,,,,,,,,,,,,,,,,,,,,,,,,,,,,,,,,,,,,,
Please be patient as the study loads,600319e3a3b1a337cab57a3e,66d895541319693e0a3a3141,66db1c8051ac695591593517,2024-09-06_11h19.10.675,RewardEffortLearning_pilot7b,2023.1.3,Win32,7.486711088,,,,,,,,,,,,,,,,,,,,,,,,,,,,,,,,,,,,,,,,,,,,,,,,,,,,,,,,,,,,,,,,,,,,,,,,,"[""return""]",[5.866799999713862],[null],,,,,,,,,,,,,,,,,,,,,,,,,,,,,,,,,,,,,,,,,,,,,,,,,,,
Please be patient as the study loads,600319e3a3b1a337cab57a3e,66d895541319693e0a3a3141,66db1c8051ac695591593517,2024-09-06_11h19.10.675,RewardEffortLearning_pilot7b,2023.1.3,Win32,7.486711088,,,,,,,,,,,,,,,,,,,,,,,,,,,,,,,,,,,,,,,,,,,,2,"You reached the planet, you get 2 rubies!",You did not have enough fuel to reach the planet and missed 2 rubies!,stim/image2.png,48,,,,,,,,,,,,,,,,,,,,,,,,,,,,5,4,0,2,0,,,"[""return""]",[23.292800000190823],[0],45,100,0,,,"[{""time"":699.7360000000001,""reactionTime"":1},{""time"":700.3451999998093,""reactionTime"":1},{""time"":700.9546999998093,""reactionTime"":1},{""time"":701.5702999997139,""reactionTime"":1},{""time"":702.182,""reactionTime"":1},{""time"":702.795799999714,""reactionTime"":1},{""time"":703.2025000000001,""reactionTime"":4.1459000000953665},{""time"":703.6091999998093,""reactionTime"":0.2034999999999627},{""time"":704.0194000000954,""reactionTime"":0.20499999999992724},{""time"":705.035799999714,""reactionTime"":1},{""time"":705.2446999998093,""reactionTime"":0.8194999999999482},{""time"":705.8525000000001,""reactionTime"":0.20299999999997453},{""time"":706.2594000000954,""reactionTime"":0.20330000019066574},{""time"":706.6735000000001,""reactionTime"":0.20400000000006457},{""time"":707.2824000000954,""reactionTime"":0.20280000019067757},{""time"":707.6900999999046,""reactionTime"":0.2045999999045307},{""time"":708.2995000000001,""reactionTime"":1},{""time"":708.9135000000001,""reactionTime"":1}]","[4.1459000000953665,0.2034999999999627,0.20499999999992724,0.8194999999999482,0.20299999999997453,0.20330000019066574,0.20400000000006457,0.20280000019067757,0.2045999999045307]","[1,1,1,1,1,1,1,1,1,1,1,1,1,1,1,1,1,2.5729500000476833,4.1459000000953665,2.1747000000476646,0.2034999999999627,0.20424999999994498,0.20499999999992724,0.20499999999992724,1,0.9097499999999741,0.9097499999999741,0.8194999999999482,0.20299999999997453,0.20299999999997453,0.20315000009532014,0.20330000019066574,0.20365000009536516,0.20400000000006457,0.20400000000006457,0.20280000019067757,0.20280000019067757,0.20370000004760414,0.2045999999045307,0.2045999999045307,1,1,1,1,1]","[0,0,0,0,0,0,0,0,0,0,0,0,0,0,0,0,0,0,100,100,100,100,0,11.35934550031753,11.35934550031753,22.71869100063506,100,100,100,100,100,100,100,100,100,100,100,100,0,0,0,0,0]",1,0.2055,0.05,-0.5,0,38.26598563,0.2028,FALSE,0,0,0,0,1,,,,,,,,,,,,,,,,,,,
Please be patient as the study loads,600319e3a3b1a337cab57a3e,66d895541319693e0a3a3141,66db1c8051ac695591593517,2024-09-06_11h19.10.675,RewardEffortLearning_pilot7b,2023.1.3,Win32,7.486711088,,,,,,,,,,,,,,,,,,,,,,,,,,,,,,,,,,,,,,,,,,,,2,"You reached the planet, you get 2 rubies!",You did not have enough fuel to reach the planet and missed 2 rubies!,stim/image2.png,63,,,,,,,,,,,,,,,,,,,,,,,,,,,,4,4,0,4,0,,,,,,100,100,0,,,"[{""time"":714.0689000000955,""reactionTime"":1},{""time"":714.6764000000954,""reactionTime"":1},{""time"":715.2880000000001,""reactionTime"":1},{""time"":715.694799999714,""reactionTime"":0.20329999971386314},{""time"":716.307,""reactionTime"":0.4080999999046071},{""time"":717.1291999998093,""reactionTime"":1},{""time"":717.7431999998093,""reactionTime"":1},{""time"":718.3576999998094,""reactionTime"":1},{""time"":718.764799999714,""reactionTime"":2.254399999618613},{""time"":719.7815999999048,""reactionTime"":0.6100000000000136},{""time"":720.8039000000954,""reactionTime"":0.6112000002860896},{""time"":722.0290000000001,""reactionTime"":1},{""time"":722.6435,""reactionTime"":1},{""time"":723.0520999999047,""reactionTime"":1.6363000001907722},{""time"":723.8671999998094,""reactionTime"":1},{""time"":724.479,""reactionTime"":1},{""time"":724.6825000000001,""reactionTime"":1.425900000095453}]","[0.20329999971386314,0.4080999999046071,2.254399999618613,0.6100000000000136,0.6112000002860896,1.6363000001907722,1.425900000095453]","[1,1,1,1,1,1,1,1,0.6016499998569316,0.20329999971386314,0.20329999971386314,0.4080999999046071,0.4080999999046071,0.4080999999046071,1,1,1,1,1,1,1,1,1.6271999998093065,2.254399999618613,2.254399999618613,0.6100000000000136,0.6100000000000136,0.6100000000000136,0.6112000002860896,0.6112000002860896,0.6112000002860896,1,1,1,1,1,1.318150000095386,1.6363000001907722,1.6363000001907722,1,1,1,1,1.2129500000477265,1.2129500000477265,1.425900000095453]","[0,0,0,49.96864027074102,99.93728054148204,99.93728054148204,74.2473658099556,74.2473658099556,74.2473658099556,0,0,0,0,0,0,0,0,0,0,0,48.92122429669696,48.92122429669696,48.92122429669696,48.77069741682203,48.77069741682203,48.77069741682203,0,0,0,0,0,0,0,0,0,0,0,0,0,0,0]",1,0.2028,0.05,-0.5,0,18.6746601,0.2033,FALSE,0,1,1,1,1,,,,,,,,,,,,,,,,,,,
Please be patient as the study loads,600319e3a3b1a337cab57a3e,66d895541319693e0a3a3141,66db1c8051ac695591593517,2024-09-06_11h19.10.675,RewardEffortLearning_pilot7b,2023.1.3,Win32,7.486711088,,,,,,,,,,,,,,,,,,,,,,,,,,,,,,,,,,,,,,,,,,,,0,"You reached the planet, but a space pirate already plundered all the rubies!",You did not have enough fuel to reach the planet and a space pirate already plundered all the rubies!,stim/None.png,50,,,,,,,,,,,,,,,,,,,,,,,,,,,,3,7,0,4,0,,,"[""return""]",[14.211500000000001],[0.00009999990470532794],50,60,0,,,"[{""time"":766.422799999714,""reactionTime"":1},{""time"":767.0351999998094,""reactionTime"":1},{""time"":767.6450999999047,""reactionTime"":1},{""time"":768.2631999998093,""reactionTime"":1},{""time"":768.872799999714,""reactionTime"":1},{""time"":769.484,""reactionTime"":1},{""time"":769.8915999999047,""reactionTime"":0.20440000009534742},{""time"":770.501799999714,""reactionTime"":0.2039999999999509},{""time"":771.7239000000955,""reactionTime"":0.609900000095422},{""time"":772.3391999998094,""reactionTime"":1},{""time"":772.9505999999047,""reactionTime"":0.20469999980934972},{""time"":773.5630000000001,""reactionTime"":0.4092000002860914},{""time"":774.7990000000001,""reactionTime"":1},{""time"":775.4086999998093,""reactionTime"":1},{""time"":775.8436999998094,""reactionTime"":1.6655999999046571},{""time"":776.3981999998093,""reactionTime"":0.29549999999994725},{""time"":776.9239000000954,""reactionTime"":0.28320000028600134},{""time"":777.511299999714,""reactionTime"":1},{""time"":778.0375,""reactionTime"":1},{""time"":778.541,""reactionTime"":1},{""time"":779.4050999999047,""reactionTime"":0.2463000001906721}]","[0.20440000009534742,0.2039999999999509,0.609900000095422,0.20469999980934972,0.4092000002860914,1.6655999999046571,0.29549999999994725,0.28320000028600134,0.2463000001906721]","[1,1,1,1,1,1,1,1,1,1,1,1,1,1,1,1,1,0.6022000000476737,0.20440000009534742,0.20440000009534742,0.2039999999999509,0.2039999999999509,0.2039999999999509,0.609900000095422,0.609900000095422,0.609900000095422,1,1,1,0.20469999980934972,0.20469999980934972,0.20469999980934972,0.4092000002860914,0.4092000002860914,0.4092000002860914,1,1,1,1,1,1.3327999999523286,1.6655999999046571,0.29549999999994725,0.29549999999994725,0.28320000028600134,0.28320000028600134,1,1,1,1,1,1,0.2463000001906721,0.2463000001906721,0.2463000001906721]","[0,0,0,0,0,0,0,0,0,0,0,0,49.8996487766525,99.799297553305,99.799297553305,99.84947317993473,99.84947317993473,99.84947317993473,48.93376818839484,48.93376818839484,48.93376818839484,0,0,0,99.76166587818281,99.76166587818281,99.76166587818281,74.10938282177855,74.10938282177855,74.10938282177855,0,0,0,0,0,0,0,88.37180132570973,88.37180132570973,89.91470144072325,89.91470144072325,0,0,0,0,0,0,94.54340190536891,94.54340190536891,94.54340190536891]",1,0.2028,0.05,-0.5,0,37.15328651,0.204,FALSE,0,2,2,2,1,,,,,,,,,,,,,,,,,,,
Please be patient as the study loads,600319e3a3b1a337cab57a3e,66d895541319693e0a3a3141,66db1c8051ac695591593517,2024-09-06_11h19.10.675,RewardEffortLearning_pilot7b,2023.1.3,Win32,7.486711088,,,,,,,,,,,,,,,,,,,,,,,,,,,,,,,,,,,,,,,,,,,,0,"You reached the planet, but a space pirate already plundered all the rubies!",You did not have enough fuel to reach the planet and a space pirate already plundered all the rubies!,stim/None.png,27,,,,,,,,,,,,,,,,,,,,,,,,,,,,2,2,0,4,0,,,,,,65,65,0,,,"[{""time"":784.780299999714,""reactionTime"":1},{""time"":785.387299999714,""reactionTime"":1},{""time"":786.0115000000001,""reactionTime"":1},{""time"":786.6269000000955,""reactionTime"":1},{""time"":787.4430999999047,""reactionTime"":0.20359999990466804},{""time"":788.4659000000954,""reactionTime"":0.6161000003814934},{""time"":789.2877999997139,""reactionTime"":0.412899999618503},{""time"":789.9019000000955,""reactionTime"":1},{""time"":790.9199000000955,""reactionTime"":0.6116000003814861},{""time"":791.944299999714,""reactionTime"":0.6181999998092351},{""time"":792.7609000000955,""reactionTime"":0.2044000000954611},{""time"":793.5756999998093,""reactionTime"":0.4054999999999609},{""time"":794.1876999998093,""reactionTime"":0.20359999990455435},{""time"":795.0015999999047,""reactionTime"":0.40709999990463075},{""time"":795.6116999998094,""reactionTime"":0.20279999971398865},{""time"":796.4275999999047,""reactionTime"":0.40830000019070667},{""time"":797.241799999714,""reactionTime"":0.4065999999046426}]","[0.20359999990466804,0.6161000003814934,0.412899999618503,0.6116000003814861,0.6181999998092351,0.2044000000954611,0.4054999999999609,0.20359999990455435,0.40709999990463075,0.20279999971398865,0.40830000019070667,0.4065999999046426]","[1,1,1,1,1,1,1,1,1,1,1,1,0.20359999990466804,0.20359999990466804,0.20359999990466804,0.6161000003814934,0.6161000003814934,0.6161000003814934,0.412899999618503,0.412899999618503,0.412899999618503,1,1,1,0.6116000003814861,0.6116000003814861,0.6116000003814861,0.6181999998092351,0.6181999998092351,0.6181999998092351,0.2044000000954611,0.2044000000954611,0.2044000000954611,0.4054999999999609,0.4054999999999609,0.4054999999999609,0.20359999990455435,0.20359999990455435,0.20359999990455435,0.40709999990463075,0.40709999990463075,0.40709999990463075,0.20279999971398865,0.20279999971398865,0.20279999971398865,0.40830000019070667,0.40830000019070667,0.40830000019070667,0.4065999999046426]","[0,0,0,0,0,0,0,99.8996488065502,99.8996488065502,99.8996488065502,48.15604612522948,48.15604612522948,48.15604612522948,73.64525846988485,73.64525846988485,73.64525846988485,0,0,0,48.720521790192294,48.720521790192294,48.720521790192294,47.892624220030775,47.892624220030775,47.892624220030775,99.79929755329073,99.79929755329073,99.79929755329073,74.57350729330582,74.57350729330582,74.57350729330582,99.89964880656446,99.89964880656446,99.89964880656446,74.37280484661082,74.37280484661082,74.37280484661082,100,100,100,74.22227796673589,74.22227796673589,74.22227796673589,74.43552436493844]",1,0.2028,0.05,-0.5,0,59.04500982,0.2028,TRUE,0,3,3,3,1,,,,,,,,,,,,,,,,,,,
Please be patient as the study loads,600319e3a3b1a337cab57a3e,66d895541319693e0a3a3141,66db1c8051ac695591593517,2024-09-06_11h19.10.675,RewardEffortLearning_pilot7b,2023.1.3,Win32,7.486711088,,,,,,,,,,,,,,,,,,,,,,,,,,,,,,,,,,,,,,,,,,,,1,"You reached the planet, you get 1 ruby!",You did not have enough fuel to reach the planet and missed 1 ruby!,stim/image1.png,24,,,,,,,,,,,,,,,,,,,,,,,,,,,,4,2,0,5,0,,,"[""return""]",[10.276900000095338],[0.0001999998091832822],55,80,0,,,"[{""time"":834.2322999997139,""reactionTime"":1},{""time"":834.8414000000955,""reactionTime"":1},{""time"":835.4506999998093,""reactionTime"":1},{""time"":835.8572999997139,""reactionTime"":0.20329999971386314},{""time"":836.2645999999047,""reactionTime"":0.2038000001907676},{""time"":837.0769000000955,""reactionTime"":0.40600000000017644},{""time"":837.484299999714,""reactionTime"":0.20299999999997453},{""time"":838.2957999997141,""reactionTime"":0.4052999997140887},{""time"":838.9065999999048,""reactionTime"":1},{""time"":839.520799999714,""reactionTime"":1},{""time"":840.1386999998094,""reactionTime"":0.4071999998093361},{""time"":840.5462999997139,""reactionTime"":0.20389999961844296},{""time"":841.2185000000002,""reactionTime"":0.2652000002863133},{""time"":842.1010999999046,""reactionTime"":0.21019999980921966},{""time"":842.9804000000954,""reactionTime"":0.44130000019072213},{""time"":843.5895,""reactionTime"":0.20299999999997453},{""time"":844.4174000000955,""reactionTime"":0.2175000000002001},{""time"":845.3335999999047,""reactionTime"":0.20809999990456163}]","[0.20329999971386314,0.2038000001907676,0.40600000000017644,0.20299999999997453,0.4052999997140887,0.4071999998093361,0.20389999961844296,0.2652000002863133,0.21019999980921966,0.44130000019072213,0.20299999999997453,0.2175000000002001,0.20809999990456163]","[1,1,1,1,1,1,1,1,0.6016499998569316,0.20329999971386314,0.20354999995231537,0.2038000001907676,0.2038000001907676,0.40600000000017644,0.40600000000017644,0.3045000000000755,0.20299999999997453,0.20299999999997453,0.4052999997140887,0.4052999997140887,0.4052999997140887,1,1,1,1,1,1,0.4071999998093361,0.4071999998093361,0.3055499997138895,0.20389999961844296,0.20389999961844296,0.2652000002863133,0.2652000002863133,0.2652000002863133,0.21019999980921966,0.21019999980921966,0.21019999980921966,0.44130000019072213,0.44130000019072213,0.44130000019072213,0.20299999999997453,0.20299999999997453,0.20299999999997453,0.2175000000002001,0.2175000000002001,0.2175000000002001,0.20809999990456163,0.20809999990456163,0.20809999990456163]","[0,0,0,49.96864024086207,99.93728048172414,99.90592069266712,99.8745609036101,99.8745609036101,74.51078773039566,74.51078773039566,87.24284994360262,99.97491215680957,99.97491215680957,74.59859509189047,74.59859509189047,74.59859509189047,0,0,0,0,0,0,74.36026091043466,74.36026091043466,87.11113899108915,99.86201707174365,99.86201707174365,92.17260404541679,92.17260404541679,92.17260404541679,99.07175111733866,99.07175111733866,99.07175111733866,70.08278971510703,70.08278971510703,70.08278971510703,99.97491215680957,99.97491215680957,99.97491215680957,98.15604612632495,98.15604612632495,98.15604612632495,99.33517308220378,99.33517308220378,99.33517308220378]",1,0.2028,0.05,-0.5,1,71.58903382,0.203,TRUE,0,4,4,4,1,,,,,,,,,,,,,,,,,,,
Please be patient as the study loads,600319e3a3b1a337cab57a3e,66d895541319693e0a3a3141,66db1c8051ac695591593517,2024-09-06_11h19.10.675,RewardEffortLearning_pilot7b,2023.1.3,Win32,7.486711088,,,,,,,,,,,,,,,,,,,,,,,,,,,,,,,,,,,,,,,,,,,,0,"You reached the planet, but a space pirate already plundered all the rubies!",You did not have enough fuel to reach the planet and a space pirate already plundered all the rubies!,stim/None.png,22,,,,,,,,,,,,,,,,,,,,,,,,,,,,4,4,0,5,0,,,,,,45,45,0,,,"[{""time"":850.5995,""reactionTime"":1},{""time"":851.207299999714,""reactionTime"":1},{""time"":851.816,""reactionTime"":1},{""time"":852.4275,""reactionTime"":1},{""time"":853.2429000000955,""reactionTime"":0.6119000000953747},{""time"":853.8534000000955,""reactionTime"":0.40710000038143335},{""time"":854.463,""reactionTime"":0.2030999999044525},{""time"":855.0730999999048,""reactionTime"":0.20409999990465622},{""time"":855.8885,""reactionTime"":0.20409999990465622},{""time"":856.7022999997139,""reactionTime"":0.40709999990463075},{""time"":857.3115999999047,""reactionTime"":0.2031999998093852},{""time"":857.9251999998094,""reactionTime"":0.20409999990465622},{""time"":858.5349000000954,""reactionTime"":0.2039999999999509},{""time"":858.9434000000954,""reactionTime"":0.20440000009534742},{""time"":859.5649000000953,""reactionTime"":0.2043000001906421},{""time"":860.1825999999046,""reactionTime"":0.2096999998091178},{""time"":860.5890999999046,""reactionTime"":0.2038000001907676},{""time"":861.2012999997139,""reactionTime"":0.40739999961851936},{""time"":861.6076999998093,""reactionTime"":0.20319999980915782},{""time"":862.0160000000001,""reactionTime"":0.20409999990465622},{""time"":862.6264000000954,""reactionTime"":0.2032000002859604}]","[0.6119000000953747,0.40710000038143335,0.2030999999044525,0.20409999990465622,0.20409999990465622,0.40709999990463075,0.2031999998093852,0.20409999990465622,0.2039999999999509,0.20440000009534742,0.2043000001906421,0.2096999998091178,0.2038000001907676,0.40739999961851936,0.20319999980915782,0.20409999990465622,0.2032000002859604]","[1,1,1,1,1,1,1,1,1,1,1,1,0.6119000000953747,0.6119000000953747,0.6119000000953747,0.40710000038143335,0.40710000038143335,0.40710000038143335,0.2030999999044525,0.2030999999044525,0.2030999999044525,0.20409999990465622,0.20409999990465622,0.20409999990465622,0.20409999990465622,0.20409999990465622,0.20409999990465622,0.40709999990463075,0.40709999990463075,0.40709999990463075,0.2031999998093852,0.2031999998093852,0.2031999998093852,0.20409999990465622,0.20409999990465622,0.20409999990465622,0.2039999999999509,0.2039999999999509,0.20420000004764916,0.20440000009534742,0.20440000009534742,0.2043000001906421,0.2043000001906421,0.2043000001906421,0.2096999998091178,0.2096999998091178,0.2067499999999427,0.2038000001907676,0.2038000001907676,0.40739999961851936,0.40739999961851936,0.3052999997138386,0.20319999980915782,0.20364999985690702,0.20409999990465622,0.20409999990465622,0.2032000002859604,0.2032000002859604]","[0,0,0,0,0,0,0,48.68289008597425,48.68289008597425,48.68289008597425,74.37280474232966,74.37280474232966,74.37280474232966,99.96236826513343,99.96236826513343,99.96236826513343,99.8369292285247,99.8369292285247,99.8369292285247,99.8369292285247,99.8369292285247,99.8369292285247,74.37280480213931,74.37280480213931,74.37280480213931,99.94982437340028,99.94982437340028,99.94982437340028,99.8369292285247,99.8369292285247,99.8369292285247,99.84947312022933,99.84947312022933,99.82438530692947,99.79929749362961,99.79929749362961,99.81184138533425,99.81184138533425,99.81184138533425,99.13447063564304,99.13447063564304,99.50451576962658,99.8745609036101,99.8745609036101,74.33517312705389,74.33517312705389,87.14249875024134,99.9498243734288,99.89337680097674,99.8369292285247,99.8369292285247,99.94982431361915,99.94982431361915]",1,0.2028,0.05,-0.5,1,79.65781175,0.2031,TRUE,0,5,5,5,1,,,,,,,,,,,,,,,,,,,
Please be patient as the study loads,600319e3a3b1a337cab57a3e,66d895541319693e0a3a3141,66db1c8051ac695591593517,2024-09-06_11h19.10.675,RewardEffortLearning_pilot7b,2023.1.3,Win32,7.486711088,,,,,,,,,,,,,,,,,,,,,,,,,,,,,,,,,,,,,,,,,,,,0,"You reached the planet, but a space pirate already plundered all the rubies!",You did not have enough fuel to reach the planet and a space pirate already plundered all the rubies!,stim/None.png,36,,,,,,,,,,,,,,,,,,,,,,,,,,,,6,7,0,5,0,,,"[""return""]",[6.523900000095409],[null],75,70,0,,,"[{""time"":886.7290999999047,""reactionTime"":1},{""time"":887.3389000000955,""reactionTime"":1},{""time"":887.9490000000001,""reactionTime"":1},{""time"":888.356,""reactionTime"":0.20330000019066574},{""time"":888.9719000000955,""reactionTime"":0.406100000381457},{""time"":889.3790999999046,""reactionTime"":0.2043000001906421},{""time"":889.988799999714,""reactionTime"":0.20400000000017826},{""time"":890.598,""reactionTime"":0.202599999904578},{""time"":891.217299999714,""reactionTime"":0.4141999998093979},{""time"":891.6232999997139,""reactionTime"":0.20329999971386314},{""time"":892.2366999998094,""reactionTime"":0.40859999990470897},{""time"":892.6440999999047,""reactionTime"":0.20409999990465622},{""time"":893.2556999998094,""reactionTime"":0.2035000000000764},{""time"":893.663799999714,""reactionTime"":0.203799999713965},{""time"":894.2730000000001,""reactionTime"":0.20290000009549658},{""time"":894.6785,""reactionTime"":0.20280000019056388},{""time"":895.0865999999046,""reactionTime"":0.20369999980925968},{""time"":895.6965,""reactionTime"":1},{""time"":896.104,""reactionTime"":0.20390000009524556},{""time"":896.5116999998093,""reactionTime"":0.20359999990455435},{""time"":896.9200999999048,""reactionTime"":0.2038000001907676},{""time"":897.326799999714,""reactionTime"":0.20339999961856847},{""time"":897.7364000000955,""reactionTime"":0.20560000038153703},{""time"":898.1425000000002,""reactionTime"":0.20390000009547293}]","[0.20330000019066574,0.406100000381457,0.2043000001906421,0.20400000000017826,0.202599999904578,0.4141999998093979,0.20329999971386314,0.40859999990470897,0.20409999990465622,0.2035000000000764,0.203799999713965,0.20290000009549658,0.20280000019056388,0.20369999980925968,0.20390000009524556,0.20359999990455435,0.2038000001907676,0.20339999961856847,0.20560000038153703,0.20390000009547293]","[1,1,1,1,1,1,1,1,0.6016500000953329,0.20330000019066574,0.20330000019066574,0.406100000381457,0.406100000381457,0.30520000028604954,0.2043000001906421,0.2043000001906421,0.20400000000017826,0.20400000000017826,0.20400000000017826,0.202599999904578,0.202599999904578,0.202599999904578,0.4141999998093979,0.4141999998093979,0.30874999976163053,0.20329999971386314,0.20329999971386314,0.40859999990470897,0.40859999990470897,0.3063499999046826,0.20409999990465622,0.20409999990465622,0.2035000000000764,0.2035000000000764,0.2036499998570207,0.203799999713965,0.203799999713965,0.20290000009549658,0.20290000009549658,0.20285000014303023,0.20280000019056388,0.20324999999991178,0.20369999980925968,0.20369999980925968,1,1,0.6019500000476228,0.20390000009524556,0.20374999999989996,0.20359999990455435,0.20370000004766098,0.2038000001907676,0.20359999990466804,0.20339999961856847,0.20450000000005275,0.20560000038153703,0.20475000023850498,0.20390000009547293]","[0,0,0,49.96864021095725,99.9372804219145,99.9372804219145,74.49824377890988,74.49824377890988,87.15504258212206,99.81184138533425,99.81184138533425,99.84947312020081,99.84947312020081,99.84947312020081,100,100,100,73.48218765434454,73.48218765434454,86.70973406803435,99.93728048172414,99.93728048172414,74.18464624725472,74.18464624725472,87.0107877378897,99.8369292285247,99.8369292285247,99.91219263850519,99.91219263850519,99.89337680096249,99.87456096341977,99.87456096341977,99.98745604848568,99.98745604848568,99.99372799435228,99.99999994021887,99.94355239767164,99.88710485512442,99.88710485512442,0,0,49.931008505966986,99.86201701193399,99.88083287938153,99.89964874682906,99.88710482521958,99.8745609036101,99.8996487468148,99.9247365900195,99.78675360192496,99.64877061383042,99.75539381286794,99.86201701190546]",1,0.2028,0.05,-0.5,1,84.92707966,0.2026,TRUE,0,6,6,6,1,,,,,,,,,,,,,,,,,,,
Please be patient as the study loads,600319e3a3b1a337cab57a3e,66d895541319693e0a3a3141,66db1c8051ac695591593517,2024-09-06_11h19.10.675,RewardEffortLearning_pilot7b,2023.1.3,Win32,7.486711088,,,,,,,,,,,,,,,,,,,,,,,,,,,,,,,,,,,,,,,,,,,,4,"You reached the planet, you get 4 rubies!",You did not have enough fuel to reach the planet and missed 4 rubies!,stim/image4.png,51,,,,,,,,,,,,,,,,,,,,,,,,,,,,2,2,0,9,0,,,,,,95,95,0,,,"[{""time"":903.231,""reactionTime"":1},{""time"":903.8665999999048,""reactionTime"":1},{""time"":904.6895999999047,""reactionTime"":0.2055000000000291},{""time"":905.0984000000954,""reactionTime"":0.20370000028606228},{""time"":905.5050999999048,""reactionTime"":0.20290000009549658},{""time"":906.1134000000955,""reactionTime"":0.4056000003815825},{""time"":906.5210999999047,""reactionTime"":0.20469999980923603},{""time"":906.9275999999047,""reactionTime"":0.20340000009537107},{""time"":907.3345999999046,""reactionTime"":0.20340000009537107},{""time"":907.7445,""reactionTime"":0.2049000000952219},{""time"":908.356,""reactionTime"":0.4069000000952201},{""time"":908.767,""reactionTime"":0.2039999999999509},{""time"":909.1744000000954,""reactionTime"":0.20360000038135695},{""time"":909.5804000000953,""reactionTime"":0.2034000000951437},{""time"":909.9874000000955,""reactionTime"":0.20360000038158432},{""time"":910.394,""reactionTime"":0.2032000002859604},{""time"":910.8004000000954,""reactionTime"":0.20349999999984902},{""time"":911.408299999714,""reactionTime"":0.40519999980938337},{""time"":911.8161999998094,""reactionTime"":0.20429999971406687},{""time"":912.2255,""reactionTime"":0.20570000028601498},{""time"":912.6349000000955,""reactionTime"":0.2032000002861878},{""time"":913.0416999998092,""reactionTime"":0.20279999971376128},{""time"":913.448299999714,""reactionTime"":0.2020999999047035},{""time"":913.8574000000954,""reactionTime"":0.20610000038141152},{""time"":914.4670000000001,""reactionTime"":0.20330000019066574}]","[0.2055000000000291,0.20370000028606228,0.20290000009549658,0.4056000003815825,0.20469999980923603,0.20340000009537107,0.20340000009537107,0.2049000000952219,0.4069000000952201,0.2039999999999509,0.20360000038135695,0.2034000000951437,0.20360000038158432,0.2032000002859604,0.20349999999984902,0.40519999980938337,0.20429999971406687,0.20570000028601498,0.2032000002861878,0.20279999971376128,0.2020999999047035,0.20610000038141152,0.20330000019066574]","[1,1,1,1,1,1,0.2055000000000291,0.2055000000000291,0.2046000001430457,0.20370000028606228,0.20330000019077943,0.20290000009549658,0.20290000009549658,0.4056000003815825,0.4056000003815825,0.30515000009540927,0.20469999980923603,0.20404999995230355,0.20340000009537107,0.20340000009537107,0.20340000009537107,0.2041500000952965,0.2049000000952219,0.2049000000952219,0.4069000000952201,0.4069000000952201,0.3054500000475855,0.2039999999999509,0.20380000019065392,0.20360000038135695,0.20350000023825032,0.2034000000951437,0.203500000238364,0.20360000038158432,0.20340000033377237,0.2032000002859604,0.20335000014290472,0.20349999999984902,0.20349999999984902,0.40519999980938337,0.40519999980938337,0.3047499997617251,0.20429999971406687,0.20500000000004093,0.20570000028601498,0.20445000028610139,0.2032000002861878,0.20299999999997453,0.20279999971376128,0.2024499998092324,0.2020999999047035,0.20410000014305751,0.20610000038141152,0.20610000038141152,0.20330000019066574,0.20330000019066574]","[0,99.63631802168246,99.63631802168246,99.74918482088935,99.86205162009624,99.91221466188642,99.96237770367662,99.96237770367662,74.54226229587255,74.54226229587255,87.13945320058197,99.73664410529135,99.81815901084123,99.89967391639111,99.89967391639111,99.89967391639111,99.80561823544858,99.71156255450606,99.71156255450606,74.37923248480132,74.37923248480132,87.10183093419867,99.82442938359601,99.84951087460091,99.8745923656058,99.88713314101273,99.89967391641962,99.88713314099846,99.8745923655773,99.89967388649377,99.92475540741026,99.90594428916015,99.88713317091005,99.88713317091005,74.59242539747166,74.59242539747166,87.18961627226948,99.7868071470673,99.69902180898222,99.61123647089717,99.76799593913945,99.92475540738174,99.94983695819555,99.97491850900936,100,100,99.81188860818911,99.56107342909272,99.56107342909272,99.91221466190068,99.91221466190068]",1,0.2026,0.05,-0.5,5,94.1517038,0.2021,TRUE,0,7,7,7,1,,,,,,,,,,,,,,,,,,,
Please be patient as the study loads,600319e3a3b1a337cab57a3e,66d895541319693e0a3a3141,66db1c8051ac695591593517,2024-09-06_11h19.10.675,RewardEffortLearning_pilot7b,2023.1.3,Win32,7.486711088,,,,,,,,,,,,,,,,,,,,,,,,,,,,,,,,,,,,,,,,,,,,0,"You reached the planet, but a space pirate already plundered all the rubies!",You did not have enough fuel to reach the planet and a space pirate already plundered all the rubies!,stim/None.png,65,,,,,,,,,,,,,,,,,,,,,,,,,,,,3,1,0,9,0,,,"[""return""]",[8.404999999999973],[null],25,55,0,,,"[{""time"":947.7984000000954,""reactionTime"":1},{""time"":948.4079000000954,""reactionTime"":1},{""time"":949.0176999998093,""reactionTime"":1},{""time"":949.4251999998094,""reactionTime"":0.20390000009547293},{""time"":949.8330999999048,""reactionTime"":0.2049000000954493},{""time"":950.2402999997139,""reactionTime"":0.2045999999045307},{""time"":950.6476999998094,""reactionTime"":0.20340000009537107},{""time"":951.2585000000001,""reactionTime"":0.20359999990478173},{""time"":951.6650999999047,""reactionTime"":0.20330000019066574},{""time"":952.0711999998093,""reactionTime"":0.20309999990467986},{""time"":952.4770999999048,""reactionTime"":0.20240000009539472},{""time"":952.8921999998092,""reactionTime"":0.20540000009532378},{""time"":953.5019000000955,""reactionTime"":0.20310000038148246},{""time"":953.9119000000953,""reactionTime"":0.2058000001907203},{""time"":954.3200999999046,""reactionTime"":0.2039999999999509},{""time"":954.7276999998094,""reactionTime"":0.20409999990465622},{""time"":955.1365000000001,""reactionTime"":0.20530000019084582},{""time"":955.5489000000955,""reactionTime"":0.20370000028606228},{""time"":955.9560000000001,""reactionTime"":0.20359999990478173},{""time"":956.5716999998094,""reactionTime"":0.20309999990467986},{""time"":956.979799999714,""reactionTime"":0.20419999980936154},{""time"":957.3877999997139,""reactionTime"":0.20439999961854483},{""time"":957.795299999714,""reactionTime"":0.20409999990465622},{""time"":958.2050000000002,""reactionTime"":0.20530000019084582},{""time"":958.6124000000955,""reactionTime"":0.20330000019066574},{""time"":959.0212999997141,""reactionTime"":0.20419999980936154}]","[0.20390000009547293,0.2049000000954493,0.2045999999045307,0.20340000009537107,0.20359999990478173,0.20330000019066574,0.20309999990467986,0.20240000009539472,0.20540000009532378,0.20310000038148246,0.2058000001907203,0.2039999999999509,0.20409999990465622,0.20530000019084582,0.20370000028606228,0.20359999990478173,0.20309999990467986,0.20419999980936154,0.20439999961854483,0.20409999990465622,0.20530000019084582,0.20330000019066574,0.20419999980936154]","[1,1,1,1,1,1,1,1,0.6019500000477365,0.20390000009547293,0.2044000000954611,0.2049000000954493,0.20474999999999,0.2045999999045307,0.2039999999999509,0.20340000009537107,0.20340000009537107,0.20359999990478173,0.20359999990478173,0.20345000004772373,0.20330000019066574,0.2032000000476728,0.20309999990467986,0.2027500000000373,0.20240000009539472,0.20390000009535925,0.20540000009532378,0.20540000009532378,0.20310000038148246,0.20310000038148246,0.20445000028610139,0.2058000001907203,0.2049000000953356,0.2039999999999509,0.20404999995230355,0.20409999990465622,0.20470000004775102,0.20530000019084582,0.20450000023845405,0.20370000028606228,0.203650000095422,0.20359999990478173,0.20359999990478173,0.20309999990467986,0.20309999990467986,0.2036499998570207,0.20419999980936154,0.20429999971395318,0.20439999961854483,0.20424999976160052,0.20409999990465622,0.20470000004775102,0.20530000019084582,0.20430000019075578,0.20330000019066574,0.20375000000001364,0.20419999980936154]","[0,0,0,49.88720389832345,99.7744077966469,99.71174330235833,99.64907880806976,99.66787816832058,99.68667752857142,99.76187490976056,99.8370722909497,99.8370722909497,99.81200651712005,99.81200651712005,99.8308058474923,99.84960517786453,99.86213809464371,99.87467101142286,99.91853614547486,99.96240127952683,99.77440779666115,99.58641431379544,99.58641431379544,99.87467095166568,99.87467095166568,99.70547682903657,99.53628270640745,99.64907880808401,99.76187490976056,99.75560846630314,99.74934202284574,99.67414461176377,99.59894720068178,99.69921038557916,99.79947357047654,99.8057400437983,99.81200651712005,99.81200651712005,99.87467101142286,99.87467101142286,99.8057400736769,99.73680913593091,99.72427624903034,99.71174336212977,99.73054269248776,99.74934202284574,99.67414461176377,99.59894720068178,99.72427618927316,99.84960517786453,99.79320715689772,99.73680913593091]",1,0.2021,0.05,-0.5,5,93.04568722,0.2024,TRUE,0,8,8,8,1,,,,,,,,,,,,,,,,,,,
Please be patient as the study loads,600319e3a3b1a337cab57a3e,66d895541319693e0a3a3141,66db1c8051ac695591593517,2024-09-06_11h19.10.675,RewardEffortLearning_pilot7b,2023.1.3,Win32,7.486711088,,,,,,,,,,,,,,,,,,,,,,,,,,,,,,,,,,,,,,,,,,,,0,"You reached the planet, but a space pirate already plundered all the rubies!",You did not have enough fuel to reach the planet and a space pirate already plundered all the rubies!,stim/None.png,63,,,,,,,,,,,,,,,,,,,,,,,,,,,,7,7,0,9,0,,,,,,65,65,0,,,"[{""time"":964.1204000000955,""reactionTime"":1},{""time"":964.9315000000001,""reactionTime"":0.20390000009547293},{""time"":965.3392999997141,""reactionTime"":0.20389999961867034},{""time"":965.9502999997139,""reactionTime"":0.20450000000005275},{""time"":966.3561999998094,""reactionTime"":0.20299999999997453},{""time"":966.7629000000954,""reactionTime"":0.2032000002861878},{""time"":967.3870999999046,""reactionTime"":1},{""time"":967.8244000000955,""reactionTime"":0.22330000019087493},{""time"":968.382799999714,""reactionTime"":0.2916999998094525},{""time"":969.3149000000953,""reactionTime"":0.4081000003814097},{""time"":969.7221999998094,""reactionTime"":0.20359999990478173},{""time"":970.1285999999047,""reactionTime"":0.20369999980925968},{""time"":970.5346999998094,""reactionTime"":0.20329999971386314},{""time"":970.9415000000001,""reactionTime"":0.20420000028616414},{""time"":971.347799999714,""reactionTime"":0.20309999990467986},{""time"":971.7544000000955,""reactionTime"":0.2035000000000764},{""time"":972.3697999997139,""reactionTime"":0.2062999997137922},{""time"":972.7770999999047,""reactionTime"":0.20359999990478173},{""time"":973.1845999999048,""reactionTime"":0.20390000009547293},{""time"":973.5924000000955,""reactionTime"":0.20270000028608592},{""time"":974.0020999999047,""reactionTime"":0.20530000019061845},{""time"":974.4451999998093,""reactionTime"":0.20340000009537107},{""time"":974.8509000000954,""reactionTime"":0.20270000028608592}]","[0.20390000009547293,0.20389999961867034,0.20450000000005275,0.20299999999997453,0.2032000002861878,0.22330000019087493,0.2916999998094525,0.4081000003814097,0.20359999990478173,0.20369999980925968,0.20329999971386314,0.20420000028616414,0.20309999990467986,0.2035000000000764,0.2062999997137922,0.20359999990478173,0.20390000009547293,0.20270000028608592,0.20530000019061845,0.20340000009537107,0.20270000028608592]","[1,1,1,0.20390000009547293,0.20390000009547293,0.20389999985707163,0.20389999961867034,0.20389999961867034,0.20450000000005275,0.20450000000005275,0.20375000000001364,0.20299999999997453,0.20310000014308116,0.2032000002861878,0.2032000002861878,1,1,0.6116500000954375,0.22330000019087493,0.2916999998094525,0.2916999998094525,0.4081000003814097,0.4081000003814097,0.3058500001430957,0.20359999990478173,0.2036499998570207,0.20369999980925968,0.2034999997615614,0.20329999971386314,0.20375000000001364,0.20420000028616414,0.203650000095422,0.20309999990467986,0.20329999995237813,0.2035000000000764,0.2035000000000764,0.2062999997137922,0.2062999997137922,0.20494999980928696,0.20359999990478173,0.20375000000012733,0.20390000009547293,0.20330000019077943,0.20270000028608592,0.20400000023835219,0.20530000019061845,0.20435000014299476,0.20340000009537107,0.2030500001907285]","[99.7744077966469,99.77440782652549,99.77440785640408,99.77440785640408,99.69921041545776,99.69921041545776,99.79320715689772,99.8872038983377,99.87467098154428,99.86213806475087,99.86213806475087,0,0,48.671512703118225,97.34302540623645,88.77052263516134,88.77052263516134,74.18222829275564,74.18222829275564,86.99711740493785,99.81200651712005,99.8057400736769,99.79947363023372,99.82453943392773,99.84960523762172,99.79320715689772,99.73680907617373,99.8057400437983,99.87467101142286,99.84960520772887,99.82453940403488,99.82453940403488,99.47361827189033,99.47361827189033,99.6428123945052,99.81200651712005,99.79320715688348,99.7744077966469,99.8496051778503,99.92480255905367,99.76187487988197,99.59894720071027,99.71800974582999,99.8370722909497,99.88093742500169]",1,0.2021,0.05,-0.5,5,92.24519919,0.2027,TRUE,0,9,9,9,1,,,,,,,,,,,,,,,,,,,
Please be patient as the study loads,600319e3a3b1a337cab57a3e,66d895541319693e0a3a3141,66db1c8051ac695591593517,2024-09-06_11h19.10.675,RewardEffortLearning_pilot7b,2023.1.3,Win32,7.486711088,,,,,,,,,,,,,,,,,,,,,,,,,,,,,,,,,,,,,,,,,,,,5,"You reached the planet, you get 5 rubies!",You did not have enough fuel to reach the planet and missed 5 rubies!,stim/image5.png,69,,,,,,,,,,,,,,,,,,,,,,,,,,,,4,3,0,14,0,,,"[""return""]",[5.786400000095227],[0.0003000001909185812],50,55,0,,,"[{""time"":995.6272999997141,""reactionTime"":1},{""time"":996.2371999998093,""reactionTime"":1},{""time"":997.0496999998093,""reactionTime"":0.20269999980928333},{""time"":997.4567999997139,""reactionTime"":0.2030999999044525},{""time"":997.8645000000001,""reactionTime"":0.20440000009534742},{""time"":998.4745999999047,""reactionTime"":1},{""time"":998.885,""reactionTime"":0.20340000009537107},{""time"":999.2915999999047,""reactionTime"":0.20340000009537107},{""time"":999.9032999997139,""reactionTime"":0.4077999997139159},{""time"":1000.3099000000955,""reactionTime"":0.20290000009549658},{""time"":1000.7180000000001,""reactionTime"":0.20450000000005275},{""time"":1001.5330000000001,""reactionTime"":0.20299999999997453},{""time"":1002.1442999997139,""reactionTime"":0.4069999999999254},{""time"":1002.553299999714,""reactionTime"":0.20369999980925968},{""time"":1003.000799999714,""reactionTime"":0.20659999990471078},{""time"":1003.4076999998094,""reactionTime"":0.20340000009537107},{""time"":1003.815,""reactionTime"":0.20420000028616414},{""time"":1004.2309000000955,""reactionTime"":0.20390000009547293},{""time"":1004.8414000000955,""reactionTime"":1},{""time"":1005.2496999998093,""reactionTime"":0.20369999980925968},{""time"":1005.6575,""reactionTime"":0.2038000001907676},{""time"":1006.065299999714,""reactionTime"":0.20339999961856847},{""time"":1006.4731999998094,""reactionTime"":0.20369999980925968},{""time"":1006.8819000000954,""reactionTime"":0.2046000003813333}]","[0.20269999980928333,0.2030999999044525,0.20440000009534742,0.20340000009537107,0.20340000009537107,0.4077999997139159,0.20290000009549658,0.20450000000005275,0.20299999999997453,0.4069999999999254,0.20369999980925968,0.20659999990471078,0.20340000009537107,0.20420000028616414,0.20390000009547293,0.20369999980925968,0.2038000001907676,0.20339999961856847,0.20369999980925968,0.2046000003813333]","[1,1,1,1,1,1,0.20269999980928333,0.20269999980928333,0.2028999998568679,0.2030999999044525,0.20374999999989996,0.20440000009534742,0.20440000009534742,1,1,0.6017000000476855,0.20340000009537107,0.20340000009537107,0.20340000009537107,0.20340000009537107,0.4077999997139159,0.4077999997139159,0.30534999990470624,0.20290000009549658,0.20370000004777467,0.20450000000005275,0.20450000000005275,0.20299999999997453,0.20299999999997453,0.20299999999997453,0.4069999999999254,0.4069999999999254,0.30534999990459255,0.20369999980925968,0.20514999985698523,0.20659999990471078,0.20500000000004093,0.20340000009537107,0.2038000001907676,0.20420000028616414,0.20405000019081854,0.20390000009547293,0.20390000009547293,1,1,0.6018499999046298,0.20369999980925968,0.20375000000001364,0.2038000001907676,0.20359999990466804,0.20339999961856847,0.20354999971391408,0.20369999980925968,0.2041500000952965]","[0,99.92480261881086,99.92480261881086,99.8997368151311,99.87467101145137,99.79320715691196,99.71174330237258,99.71174330237258,0,0,49.91853614547486,99.8370722909497,99.8370722909497,99.8370722909497,99.8370722909497,74.21982707298599,74.21982707298599,87.059781929105,99.89973678522402,99.79947360034089,99.69921041545776,99.69921041545776,99.8872038983377,99.8872038983377,99.8872038983377,74.32009022800479,74.32009022800479,87.05978192911925,99.79947363023372,99.6177465908112,99.43601955138867,99.63654592116919,99.8370722909497,99.78694068356172,99.73680907617373,99.75560843641031,99.7744077966469,99.7744077966469,0,0,49.89973681511687,99.79947363023372,99.79320715689772,99.78694068356172,99.81200651713431,99.83707235070689,99.81827299047032,99.79947363023372,99.74307554952398]",1,0.2021,0.05,-0.5,10,84.96960132,0.2027,TRUE,0,10,10,10,1,,,,,,,,,,,,,,,,,,,
Please be patient as the study loads,600319e3a3b1a337cab57a3e,66d895541319693e0a3a3141,66db1c8051ac695591593517,2024-09-06_11h19.10.675,RewardEffortLearning_pilot7b,2023.1.3,Win32,7.486711088,,,,,,,,,,,,,,,,,,,,,,,,,,,,,,,,,,,,,,,,,,,,0,"You reached the planet, but a space pirate already plundered all the rubies!",You did not have enough fuel to reach the planet and a space pirate already plundered all the rubies!,stim/None.png,76,,,,,,,,,,,,,,,,,,,,,,,,,,,,7,7,0,14,0,,,,,,10,10,0,,,"[{""time"":1011.7149000000954,""reactionTime"":1},{""time"":1012.321299999714,""reactionTime"":1},{""time"":1012.9340999999047,""reactionTime"":1},{""time"":1013.7480999999048,""reactionTime"":0.20450000000005275},{""time"":1014.1551999998094,""reactionTime"":0.2035000000000764},{""time"":1014.7710999999047,""reactionTime"":0.20280000019079125},{""time"":1015.1774000000955,""reactionTime"":0.2038000001907676},{""time"":1015.7865999999046,""reactionTime"":1},{""time"":1016.1935000000001,""reactionTime"":0.20359999990455435},{""time"":1016.5999000000954,""reactionTime"":0.20310000038148246},{""time"":1017.007799999714,""reactionTime"":0.20369999980925968},{""time"":1017.4160999999046,""reactionTime"":0.20240000009539472},{""time"":1017.8251999998092,""reactionTime"":0.20590000009519827},{""time"":1018.2334000000953,""reactionTime"":0.2041000003814588},{""time"":1018.8442999997139,""reactionTime"":0.20339999961856847},{""time"":1019.251799999714,""reactionTime"":0.20359999990455435},{""time"":1019.6649000000955,""reactionTime"":0.2041000003814588},{""time"":1020.0745999999046,""reactionTime"":0.20330000019066574},{""time"":1020.4834000000953,""reactionTime"":0.20330000019066574},{""time"":1020.8924000000954,""reactionTime"":0.20530000019084582},{""time"":1021.3017999997139,""reactionTime"":0.20239999961859212},{""time"":1021.709799999714,""reactionTime"":0.20339999961856847},{""time"":1022.1174000000954,""reactionTime"":0.20310000038148246},{""time"":1022.5241999998093,""reactionTime"":0.20369999980925968},{""time"":1023.3442999997139,""reactionTime"":0.6096999998092087}]","[0.20450000000005275,0.2035000000000764,0.20280000019079125,0.2038000001907676,0.20359999990455435,0.20310000038148246,0.20369999980925968,0.20240000009539472,0.20590000009519827,0.2041000003814588,0.20339999961856847,0.20359999990455435,0.2041000003814588,0.20330000019066574,0.20330000019066574,0.20530000019084582,0.20239999961859212,0.20339999961856847,0.20310000038148246,0.20369999980925968,0.6096999998092087]","[1,1,1,1,1,1,1,1,1,0.20450000000005275,0.20450000000005275,0.20400000000006457,0.2035000000000764,0.2035000000000764,0.20280000019079125,0.20280000019079125,0.20330000019077943,0.2038000001907676,0.2038000001907676,1,1,0.6017999999522772,0.20359999990455435,0.2033500001430184,0.20310000038148246,0.20340000009537107,0.20369999980925968,0.2030499999523272,0.20240000009539472,0.2041500000952965,0.20590000009519827,0.20500000023832854,0.2041000003814588,0.2041000003814588,0.20339999961856847,0.20339999961856847,0.2034999997615614,0.20359999990455435,0.20385000014300658,0.2041000003814588,0.20370000028606228,0.20330000019066574,0.20330000019066574,0.20330000019066574,0.20430000019075578,0.20530000019084582,0.20384999990471897,0.20239999961859212,0.2028999996185803,0.20339999961856847,0.20325000000002547,0.20310000038148246,0.20340000009537107,0.20369999980925968,0.20369999980925968,0.6096999998092087,0.6096999998092087]","[0,0,0,0,99.69921041545776,99.69921041545776,99.76187490974631,99.82453940403488,99.82453940403488,99.91226967213885,99.91226967213885,99.8496051778503,99.78694068356172,99.78694068356172,0,0,49.90600325857427,99.81200651714856,99.84333873440711,99.87467095166568,99.8370722909497,99.79947363023372,99.88093745488028,99.96240127952683,99.74307554952398,99.52374981952113,99.63654589130483,99.74934196308855,99.74934196308855,99.83707235070689,99.83707235070689,99.82453943392773,99.81200651714856,99.78067424011854,99.74934196308855,99.79947357047654,99.84960517786453,99.84960517786453,99.84960517786453,99.72427618927316,99.59894720068178,99.7806742699829,99.96240133928403,99.89973684499546,99.83707235070689,99.85587165118629,99.87467095166568,99.8370722909497,99.79947363023372,99.79947363023372,48.91590426672215,48.91590426672215]",1,0.2021,0.05,-0.5,10,85.3724199,0.2024,TRUE,0,11,11,11,1,,,,,,,,,,,,,,,,,,,
Please be patient as the study loads,600319e3a3b1a337cab57a3e,66d895541319693e0a3a3141,66db1c8051ac695591593517,2024-09-06_11h19.10.675,RewardEffortLearning_pilot7b,2023.1.3,Win32,7.486711088,,,,,,,,,,,,,,,,,,,,,,,,,,,,,,,,,,,,,,,,,,,,0,"You reached the planet, but a space pirate already plundered all the rubies!",You did not have enough fuel to reach the planet and a space pirate already plundered all the rubies!,stim/None.png,90,,,,,,,,,,,,,,,,,,,,,,,,,,,,4,2,0,14,0,,,"[""return""]",[9.52130000019065],[null],25,40,0,,,"[{""time"":1050.9024000000954,""reactionTime"":1},{""time"":1051.5121999998094,""reactionTime"":1},{""time"":1051.9210999999048,""reactionTime"":0.20430000019086947},{""time"":1052.3280999999047,""reactionTime"":0.20359999990455435},{""time"":1052.7355,""reactionTime"":0.20349999999984902},{""time"":1053.142299999714,""reactionTime"":0.203799999713965},{""time"":1053.5484000000954,""reactionTime"":0.20330000019066574},{""time"":1053.9545999999048,""reactionTime"":0.20330000019089312},{""time"":1054.7671999998092,""reactionTime"":1},{""time"":1055.3826999998093,""reactionTime"":1},{""time"":1055.9931999998093,""reactionTime"":1.8344999999999345},{""time"":1056.6030999999048,""reactionTime"":0.2035000000000764},{""time"":1057.0115999999048,""reactionTime"":0.20469999980923603},{""time"":1058.2385000000002,""reactionTime"":0.6152000002862223},{""time"":1058.8494000000953,""reactionTime"":1},{""time"":1059.4610999999047,""reactionTime"":0.40690000009544747},{""time"":1060.2751999998093,""reactionTime"":0.20340000009537107},{""time"":1061.089799999714,""reactionTime"":1},{""time"":1061.4964000000955,""reactionTime"":1.0174000000954493}]","[0.20430000019086947,0.20359999990455435,0.20349999999984902,0.203799999713965,0.20330000019066574,0.20330000019089312,1.8344999999999345,0.2035000000000764,0.20469999980923603,0.6152000002862223,0.40690000009544747,0.20340000009537107,1.0174000000954493]","[1,1,1,1,1,0.6021500000954347,0.20430000019086947,0.2039500000477119,0.20359999990455435,0.2035499999522017,0.20349999999984902,0.20364999985690702,0.203799999713965,0.20354999995231537,0.20330000019066574,0.20330000019077943,0.20330000019089312,0.20330000019089312,1,1,1,1,1,1,1.8344999999999345,1.8344999999999345,1.8344999999999345,0.2035000000000764,0.2035000000000764,0.20409999990465622,0.20469999980923603,0.20469999980923603,0.6152000002862223,0.6152000002862223,0.6152000002862223,1,1,1,0.40690000009544747,0.40690000009544747,0.40690000009544747,0.20340000009537107,0.20340000009537107,0.20340000009537107,1,1,1.0087000000477246,1.0174000000954493,1.0174000000954493]","[49.86213809462945,99.72427618925892,99.76814135320373,99.81200651714856,99.81827296060597,99.82453940406337,99.80574007369114,99.78694074331891,99.81827296059171,99.84960517786453,99.8496051778503,99.84960517783603,99.84960517783603,0,0,0,0,0,0,0,0,0,99.82453940403488,99.82453940403488,99.74934202284574,99.6741446416566,99.6741446416566,48.22659476974801,48.22659476974801,48.22659476974801,0,0,0,74.3326231148911,74.3326231148911,74.3326231148911,99.8370722909497,99.8370722909497,99.8370722909497,0,0,0,0,0]",1,0.2021,0.05,-0.5,10,54.85350749,0.2033,FALSE,0,12,12,12,1,,,,,,,,,,,,,,,,,,,
Please be patient as the study loads,600319e3a3b1a337cab57a3e,66d895541319693e0a3a3141,66db1c8051ac695591593517,2024-09-06_11h19.10.675,RewardEffortLearning_pilot7b,2023.1.3,Win32,7.486711088,,,,,,,,,,,,,,,,,,,,,,,,,,,,,,,,,,,,,,,,,,,,5,"You reached the planet, you get 5 rubies!",You did not have enough fuel to reach the planet and missed 5 rubies!,stim/image5.png,85,,,,,,,,,,,,,,,,,,,,,,,,,,,,7,7,0,19,0,,,,,,30,30,0,,,"[{""time"":1066.7389000000953,""reactionTime"":1},{""time"":1067.3445000000002,""reactionTime"":1},{""time"":1068.1615999999046,""reactionTime"":0.4065999999045289},{""time"":1068.7715999999048,""reactionTime"":0.40680000019074214},{""time"":1069.5855000000001,""reactionTime"":1},{""time"":1069.9925,""reactionTime"":1.0174000000954493},{""time"":1070.601299999714,""reactionTime"":0.4057999997139632},{""time"":1071.2105000000001,""reactionTime"":0.20280000019079125},{""time"":1071.8209000000954,""reactionTime"":1},{""time"":1072.4309000000953,""reactionTime"":1},{""time"":1073.0406999998092,""reactionTime"":1},{""time"":1073.8546999998093,""reactionTime"":0.20369999980925968},{""time"":1074.265299999714,""reactionTime"":0.203799999713965},{""time"":1075.0809000000954,""reactionTime"":0.6117000002861914},{""time"":1075.6941999998094,""reactionTime"":1},{""time"":1076.3044000000955,""reactionTime"":0.4062000002861623},{""time"":1076.7116999998093,""reactionTime"":0.20390000009524556},{""time"":1077.3726999998094,""reactionTime"":0.22469999980921784},{""time"":1077.7791999998094,""reactionTime"":0.2031999998093852}]","[0.4065999999045289,0.40680000019074214,1.0174000000954493,0.4057999997139632,0.20280000019079125,0.20369999980925968,0.203799999713965,0.6117000002861914,0.4062000002861623,0.20390000009524556,0.22469999980921784,0.2031999998093852]","[1,1,1,1,1,1,0.4065999999045289,0.4065999999045289,0.4065999999045289,0.40680000019074214,0.40680000019074214,0.40680000019074214,1,1,1.0087000000477246,1.0174000000954493,1.0174000000954493,0.4057999997139632,0.4057999997139632,0.4057999997139632,0.20280000019079125,0.20280000019079125,0.20280000019079125,1,1,1,1,1,1,1,1,1,0.20369999980925968,0.20369999980925968,0.20374999976161234,0.203799999713965,0.203799999713965,0.6117000002861914,0.6117000002861914,0.6117000002861914,1,1,1,0.4062000002861623,0.4062000002861623,0.30505000019070394,0.20390000009524556,0.20390000009524556,0.22469999980921784,0.22469999980921784,0.21394999980930152]","[0,74.37022183539277,74.37022183539277,74.37022183539277,74.34515600180593,74.34515600180593,74.34515600180593,0,0,0,0,0,74.47048505014024,74.47048505014024,74.47048505014024,99.91226967213885,99.91226967213885,99.91226967213885,0,0,0,0,0,0,0,0,0,99.79947363023372,99.79947363023372,99.79320718677631,99.78694074331891,99.78694074331891,48.66524622978221,48.66524622978221,48.66524622978221,0,0,0,74.42035338299507,74.42035338299507,87.09738058983523,99.77440779667539,99.77440779667539,97.167564870057,97.167564870057,98.51485149728254]",1,0.2021,0.05,-0.5,10,50.92593601,0.2028,FALSE,0,13,13,13,1,,,,,,,,,,,,,,,,,,,
Please be patient as the study loads,600319e3a3b1a337cab57a3e,66d895541319693e0a3a3141,66db1c8051ac695591593517,2024-09-06_11h19.10.675,RewardEffortLearning_pilot7b,2023.1.3,Win32,7.486711088,,,,,,,,,,,,,,,,,,,,,,,,,,,,,,,,,,,,,,,,,,,,5,"You reached the planet, you get 5 rubies!",You did not have enough fuel to reach the planet and missed 5 rubies!,stim/image5.png,86,,,,,,,,,,,,,,,,,,,,,,,,,,,,6,5,0,24,0,,,"[""return"",""return""]","[4.611800000190669,11.104300000190733]","[0.00019999980941065587,null]",75,95,0,,,"[{""time"":1108.3001999998094,""reactionTime"":1},{""time"":1108.9114000000955,""reactionTime"":1},{""time"":1109.8155000000002,""reactionTime"":0.20600000000013097},{""time"":1110.6769000000954,""reactionTime"":0.5774000000953947},{""time"":1111.3780000000002,""reactionTime"":0.21930000019074214},{""time"":1112.0810999999046,""reactionTime"":0.43990000009534924},{""time"":1112.6635,""reactionTime"":0.32750000000010004},{""time"":1113.2130999999047,""reactionTime"":1},{""time"":1113.6255,""reactionTime"":0.20480000019074396},{""time"":1114.3466999998093,""reactionTime"":0.42369999980928696},{""time"":1114.9941999998093,""reactionTime"":0.4204000000954693},{""time"":1115.4924000000954,""reactionTime"":0.24680000019066028},{""time"":1116.1036999998094,""reactionTime"":0.203799999713965},{""time"":1116.5104000000954,""reactionTime"":0.20330000019066574},{""time"":1117.1271999998094,""reactionTime"":0.2039999999999509},{""time"":1117.5389000000955,""reactionTime"":0.20820000028606955},{""time"":1117.9504000000954,""reactionTime"":0.2049000000954493},{""time"":1118.5626999998094,""reactionTime"":0.20340000009537107},{""time"":1118.970299999714,""reactionTime"":0.20379999971373763},{""time"":1119.3785,""reactionTime"":0.2039999999999509}]","[0.20600000000013097,0.5774000000953947,0.21930000019074214,0.43990000009534924,0.32750000000010004,0.20480000019074396,0.42369999980928696,0.4204000000954693,0.24680000019066028,0.203799999713965,0.20330000019066574,0.2039999999999509,0.20820000028606955,0.2049000000954493,0.20340000009537107,0.20379999971373763,0.2039999999999509]","[1,1,1,1,1,1,0.20600000000013097,0.20600000000013097,0.5774000000953947,0.5774000000953947,0.5774000000953947,0.21930000019074214,0.21930000019074214,0.21930000019074214,0.43990000009534924,0.43990000009534924,0.32750000000010004,0.32750000000010004,1,1,0.602400000095372,0.20480000019074396,0.42369999980928696,0.42369999980928696,0.42369999980928696,0.4204000000954693,0.4204000000954693,0.3336000001430648,0.24680000019066028,0.24680000019066028,0.203799999713965,0.203799999713965,0.20354999995231537,0.20330000019066574,0.20330000019066574,0.2039999999999509,0.2039999999999509,0.20610000014301022,0.20820000028606955,0.20655000019075942,0.2049000000954493,0.2049000000954493,0.20340000009537107,0.20340000009537107,0.20359999990455435,0.20379999971373763,0.20389999985684426,0.2039999999999509,0.2039999999999509]","[0,99.51121693257781,99.51121693257781,52.964030561991784,52.964030561991784,52.964030561991784,97.84434136057347,97.84434136057347,97.84434136057347,70.19676649176033,70.19676649176033,84.28374482010032,84.28374482010032,0,0,49.8308058474923,99.66161169498459,72.22709614260974,72.22709614260974,72.22709614260974,72.64068176905711,72.64068176905711,83.51923797184413,94.39779417463114,94.39779417463114,99.78694074331891,99.78694074331891,99.81827296059171,99.84960517786453,99.84960517786453,99.76187490976056,99.76187490976056,99.49868401581288,99.23549312186522,99.44228596496748,99.64907880806976,99.64907880806976,99.8370722909497,99.8370722909497,99.81200651714856,99.7869407433474,99.77440782655398,99.76187490976056,99.76187490976056]",1,0.2021,0.05,-0.5,10,82.70089666,0.2033,FALSE,0,14,14,14,1,,,,,,,,,,,,,,,,,,,
Please be patient as the study loads,600319e3a3b1a337cab57a3e,66d895541319693e0a3a3141,66db1c8051ac695591593517,2024-09-06_11h19.10.675,RewardEffortLearning_pilot7b,2023.1.3,Win32,7.486711088,,,,,,,,,,,,,,,,,,,,,,,,,,,,,,,,,,,,,,,,,,,,0,"You reached the planet, but a space pirate already plundered all the rubies!",You did not have enough fuel to reach the planet and a space pirate already plundered all the rubies!,stim/None.png,72,,,,,,,,,,,,,,,,,,,,,,,,,,,,6,6,0,24,0,,,,,,55,55,0,,,"[{""time"":1124.688,""reactionTime"":1},{""time"":1125.498799999714,""reactionTime"":0.20369999980925968},{""time"":1125.91,""reactionTime"":0.20630000019082217},{""time"":1126.5211999998094,""reactionTime"":0.203799999713965},{""time"":1126.9306999998093,""reactionTime"":0.20579999971391771},{""time"":1127.5471999998094,""reactionTime"":0.4070000000001528},{""time"":1127.955299999714,""reactionTime"":0.20429999971406687},{""time"":1128.3630999999048,""reactionTime"":0.20450000000005275},{""time"":1128.770799999714,""reactionTime"":0.2042999997138395},{""time"":1129.3825999999046,""reactionTime"":0.20409999990465622},{""time"":1129.7900999999047,""reactionTime"":0.20440000009534742},{""time"":1130.1980999999048,""reactionTime"":0.2044000000955748},{""time"":1130.8085,""reactionTime"":0.2039999999999509},{""time"":1131.215299999714,""reactionTime"":0.20389999961867034},{""time"":1131.6220999999048,""reactionTime"":0.20190000009552023},{""time"":1132.235299999714,""reactionTime"":0.20479999971394136},{""time"":1132.643,""reactionTime"":0.20420000028616414},{""time"":1133.051299999714,""reactionTime"":0.20359999990478173},{""time"":1133.4575999999047,""reactionTime"":0.2029000000952692},{""time"":1133.8935000000001,""reactionTime"":0.23330000019086583},{""time"":1134.6491999998093,""reactionTime"":0.25719999980924513},{""time"":1135.3050999999048,""reactionTime"":0.2385999999046362}]","[0.20369999980925968,0.20630000019082217,0.203799999713965,0.20579999971391771,0.4070000000001528,0.20429999971406687,0.20450000000005275,0.2042999997138395,0.20409999990465622,0.20440000009534742,0.2044000000955748,0.2039999999999509,0.20389999961867034,0.20190000009552023,0.20479999971394136,0.20420000028616414,0.20359999990478173,0.2029000000952692,0.23330000019086583,0.25719999980924513,0.2385999999046362]","[1,1,1,0.20369999980925968,0.20369999980925968,0.20500000000004093,0.20630000019082217,0.20630000019082217,0.203799999713965,0.203799999713965,0.20479999971394136,0.20579999971391771,0.20579999971391771,0.4070000000001528,0.4070000000001528,0.30564999985710983,0.20429999971406687,0.2043999998570598,0.20450000000005275,0.20439999985694612,0.2042999997138395,0.2042999997138395,0.20409999990465622,0.20409999990465622,0.20425000000000182,0.20440000009534742,0.2044000000954611,0.2044000000955748,0.2044000000955748,0.2039999999999509,0.2039999999999509,0.2039499998093106,0.20389999961867034,0.20289999985709528,0.20190000009552023,0.20190000009552023,0.20479999971394136,0.20479999971394136,0.20450000000005275,0.20420000028616414,0.20390000009547293,0.20359999990478173,0.20325000000002547,0.2029000000952692,0.21810000014306752,0.23330000019086583,0.23330000019086583,0.25719999980924513,0.25719999980924513,0.25719999980924513,0.2385999999046362]","[99.79947363023372,99.63654592116919,99.47361821210464,99.47361821210464,99.78694074331891,99.78694074331891,99.66161175474177,99.53628276616465,99.53628276616465,74.32009022797628,74.32009022797628,87.02218323849618,99.72427624901609,99.71174333223692,99.69921041545776,99.71174333225117,99.72427624904458,99.72427624904458,99.74934202284574,99.74934202284574,99.73054266260915,99.71174330237258,99.71174330235833,99.71174330234408,99.71174330234408,99.76187490976056,99.76187490976056,99.76814138308232,99.77440785640408,99.89973681510261,100,100,99.66161175474177,99.66161175474177,99.69921041545776,99.73680907617373,99.7744077966469,99.81200651712005,99.85587165118629,99.89973678525253,97.99473615284458,96.08973552043665,96.08973552043665,93.09437274120054,93.09437274120054,93.09437274120054,95.42549191683503]",1,0.2021,0.05,-0.5,10,97.6739473,0.2019,TRUE,0,15,15,15,1,,,,,,,,,,,,,,,,,,,
Please be patient as the study loads,600319e3a3b1a337cab57a3e,66d895541319693e0a3a3141,66db1c8051ac695591593517,2024-09-06_11h19.10.675,RewardEffortLearning_pilot7b,2023.1.3,Win32,7.486711088,,,,,,,,,,,,,,,,,,,,,,,,,,,,,,,,,,,,,,,,,,,,6,"You reached the planet, you get 6 rubies!",You did not have enough fuel to reach the planet and missed 6 rubies!,stim/image6.png,59,,,,,,,,,,,,,,,,,,,,,,,,,,,,7,2,0,30,0,,,"[""return""]",[12.165000000000191],[0.00030000019069120754],25,5,0,,,"[{""time"":1166.836799999714,""reactionTime"":1},{""time"":1167.4455999999047,""reactionTime"":1},{""time"":1168.057299999714,""reactionTime"":1},{""time"":1168.6690999999048,""reactionTime"":0.20390000009547293},{""time"":1169.2816999998092,""reactionTime"":0.20650000000000546},{""time"":1169.6876999998094,""reactionTime"":0.20290000009549658},{""time"":1170.2992999997139,""reactionTime"":0.20389999961844296},{""time"":1170.7065,""reactionTime"":0.20349999999984902},{""time"":1171.1139000000953,""reactionTime"":0.2043000001906421},{""time"":1171.7236999998092,""reactionTime"":1},{""time"":1172.1324000000955,""reactionTime"":0.20440000009534742},{""time"":1172.5400999999047,""reactionTime"":0.20319999980915782},{""time"":1172.9479000000954,""reactionTime"":0.20420000028616414},{""time"":1173.357,""reactionTime"":0.20359999990455435},{""time"":1173.7650999999048,""reactionTime"":0.20330000019089312},{""time"":1174.2015000000001,""reactionTime"":0.2205999999046071},{""time"":1174.7491999998094,""reactionTime"":0.2840000000001055},{""time"":1175.3997999997139,""reactionTime"":0.2082999997137449},{""time"":1175.8685,""reactionTime"":0.261700000286055},{""time"":1176.4779000000954,""reactionTime"":0.20299999999997453},{""time"":1176.885,""reactionTime"":0.20370000028606228},{""time"":1177.2911999998094,""reactionTime"":0.2031999998093852},{""time"":1177.697299999714,""reactionTime"":0.2028999996184666},{""time"":1178.104299999714,""reactionTime"":0.20319999980915782},{""time"":1178.5174000000954,""reactionTime"":0.20940000009545656}]","[0.20390000009547293,0.20650000000000546,0.20290000009549658,0.20389999961844296,0.20349999999984902,0.2043000001906421,0.20440000009534742,0.20319999980915782,0.20420000028616414,0.20359999990455435,0.20330000019089312,0.2205999999046071,0.2840000000001055,0.2082999997137449,0.261700000286055,0.20299999999997453,0.20370000028606228,0.2031999998093852,0.2028999996184666,0.20319999980915782,0.20940000009545656]","[1,1,1,1,1,1,1,1,1,0.20390000009547293,0.20390000009547293,0.20390000009547293,0.20650000000000546,0.20650000000000546,0.20470000004775102,0.20290000009549658,0.20290000009549658,0.20389999961844296,0.20389999961844296,0.203699999809146,0.20349999999984902,0.20390000009524556,0.2043000001906421,0.2043000001906421,1,1,0.6022000000476737,0.20440000009534742,0.20379999995225262,0.20319999980915782,0.20370000004766098,0.20420000028616414,0.20390000009535925,0.20359999990455435,0.20345000004772373,0.20330000019089312,0.2119500000477501,0.2205999999046071,0.2840000000001055,0.2840000000001055,0.2840000000001055,0.2082999997137449,0.2082999997137449,0.23499999999989996,0.261700000286055,0.261700000286055,0.20299999999997453,0.20299999999997453,0.2033500001430184,0.20370000028606228,0.20345000004772373,0.2031999998093852,0.2030499997139259,0.2028999996184666,0.2030499997138122,0.20319999980915782,0.2062999999523072]","[0,0,0,0,99.74940483646259,99.74940483646259,99.74940483646259,99.42363113581808,99.42363113581808,99.6491667770247,99.8747024182313,99.8747024182313,99.7494048962333,99.7494048962333,99.77446438869299,99.7995238811527,99.74940483649107,99.69928579182945,99.69928579182945,0,0,49.84337802279624,99.68675604559249,99.76193461258491,99.83711317957736,99.77446435880765,99.71181553803794,99.74940483647683,99.78699413491573,99.8057887542427,99.82458337356968,98.74075930918022,97.65693524479076,89.71306854850127,89.71306854850127,89.71306854850127,99.19809552449685,99.19809552449685,95.85265005533877,92.50720458618069,92.50720458618069,99.86217267202281,99.86217267202281,99.81831850047968,99.77446432893655,99.8057887542427,99.83711317954887,99.85590782877543,99.87470247800199,99.85590782878967,99.83711317957736,99.4486906581489]",1,0.2019,0.05,-0.5,16,86.27172227,0.2029,TRUE,0,16,16,16,1,,,,,,,,,,,,,,,,,,,
Please be patient as the study loads,600319e3a3b1a337cab57a3e,66d895541319693e0a3a3141,66db1c8051ac695591593517,2024-09-06_11h19.10.675,RewardEffortLearning_pilot7b,2023.1.3,Win32,7.486711088,,,,,,,,,,,,,,,,,,,,,,,,,,,,,,,,,,,,,,,,,,,,0,"You reached the planet, but a space pirate already plundered all the rubies!",You did not have enough fuel to reach the planet and a space pirate already plundered all the rubies!,stim/None.png,49,,,,,,,,,,,,,,,,,,,,,,,,,,,,6,6,0,30,0,,,,,,95,95,0,,,"[{""time"":1183.4336999998093,""reactionTime"":1},{""time"":1184.2451999998093,""reactionTime"":0.20369999980925968},{""time"":1184.6515999999046,""reactionTime"":0.20340000009537107},{""time"":1185.059799999714,""reactionTime"":0.20489999961841932},{""time"":1185.466299999714,""reactionTime"":0.20339999961856847},{""time"":1185.872799999714,""reactionTime"":0.2035000000000764},{""time"":1186.2805999999048,""reactionTime"":0.20400000000017826},{""time"":1186.6881999998093,""reactionTime"":0.2039999999999509},{""time"":1187.0955000000001,""reactionTime"":0.20359999990478173},{""time"":1187.5025999999048,""reactionTime"":0.20369999980925968},{""time"":1187.9101999998093,""reactionTime"":0.20379999971373763},{""time"":1188.3190999999047,""reactionTime"":0.20369999980925968},{""time"":1188.7304000000954,""reactionTime"":0.20760000038148974},{""time"":1189.3424000000955,""reactionTime"":0.40690000009544747},{""time"":1189.9545999999048,""reactionTime"":0.20359999990478173},{""time"":1190.383299999714,""reactionTime"":0.22639999961847934},{""time"":1190.8159000000953,""reactionTime"":0.20499999999992724},{""time"":1191.233299999714,""reactionTime"":0.20900000000006003},{""time"":1191.6645999999048,""reactionTime"":0.20340000009537107},{""time"":1192.0946999998093,""reactionTime"":0.22640000009528194},{""time"":1192.5019000000955,""reactionTime"":0.20440000009534742},{""time"":1193.3156999998093,""reactionTime"":0.20279999971398865},{""time"":1193.7224000000954,""reactionTime"":0.20330000019066574},{""time"":1194.1301999998093,""reactionTime"":0.20359999990455435}]","[0.20369999980925968,0.20340000009537107,0.20489999961841932,0.20339999961856847,0.2035000000000764,0.20400000000017826,0.2039999999999509,0.20359999990478173,0.20369999980925968,0.20379999971373763,0.20369999980925968,0.20760000038148974,0.40690000009544747,0.20359999990478173,0.22639999961847934,0.20499999999992724,0.20900000000006003,0.20340000009537107,0.22640000009528194,0.20440000009534742,0.20279999971398865,0.20330000019066574,0.20359999990455435]","[1,1,1,0.20369999980925968,0.20369999980925968,0.20354999995231537,0.20340000009537107,0.2041499998568952,0.20489999961841932,0.2041499996184939,0.20339999961856847,0.20344999980932243,0.2035000000000764,0.20375000000012733,0.20400000000017826,0.20400000000006457,0.2039999999999509,0.2037999999523663,0.20359999990478173,0.2036499998570207,0.20369999980925968,0.20374999976149866,0.20379999971373763,0.20374999976149866,0.20369999980925968,0.2056500000953747,0.20760000038148974,0.20760000038148974,0.40690000009544747,0.40690000009544747,0.40690000009544747,0.20359999990478173,0.20359999990478173,0.21499999976163053,0.22639999961847934,0.2156999998092033,0.20499999999992724,0.20699999999999363,0.20900000000006003,0.20620000004771555,0.20340000009537107,0.2149000000953265,0.22640000009528194,0.21540000009531468,0.20440000009534742,0.20440000009534742,0.20279999971398865,0.20279999971398865,0.2030499999523272,0.20330000019066574,0.20345000004761005]","[99.77446438867875,99.79325900801997,99.81205362736118,99.71808047091288,99.62410731446458,99.71808050078398,99.8120536871034,99.8057887841138,99.7995238811242,99.76819948567491,99.73687509022562,99.73687509023986,99.7368750902541,99.76193461257067,99.78699413488724,99.780729261783,99.77446438867875,99.76819951557451,99.76193464247027,99.76819951557451,99.77446438867875,99.53013406837448,99.2858037480702,99.2858037480702,74.31399573681712,74.31399573681712,74.31399573681712,99.78699413488724,99.78699413488724,98.35860172062671,96.9302093063662,98.2708934074258,99.6115775084854,99.36098234493375,99.11038718138208,99.46122040437164,99.81205362736118,98.37113143699258,96.93020924662399,98.30848264610823,99.68675604559249,99.68675604559249,99.88723222421049,99.88723222421049,99.85590779890433,99.82458337359816,99.80578875425694]",1,0.2019,0.05,-0.5,16,97.84661445,0.2028,TRUE,0,17,17,17,1,,,,,,,,,,,,,,,,,,,
Please be patient as the study loads,600319e3a3b1a337cab57a3e,66d895541319693e0a3a3141,66db1c8051ac695591593517,2024-09-06_11h19.10.675,RewardEffortLearning_pilot7b,2023.1.3,Win32,7.486711088,,,,,,,,,,,,,,,,,,,,,,,,,,,,,,,,,,,,,,,,,,,,5,"You reached the planet, you get 5 rubies!",You did not have enough fuel to reach the planet and missed 5 rubies!,stim/image5.png,34,,,,,,,,,,,,,,,,,,,,,,,,,,,,7,2,0,35,0,,,"[""return""]",[6.306700000286128],[null],50,60,0,,,"[{""time"":1215.3205999999047,""reactionTime"":1},{""time"":1215.932299999714,""reactionTime"":1},{""time"":1216.541799999714,""reactionTime"":0.20329999971386314},{""time"":1216.9489000000954,""reactionTime"":0.2038000001907676},{""time"":1217.5582999997139,""reactionTime"":0.20319999980915782},{""time"":1217.965299999714,""reactionTime"":0.203799999713965},{""time"":1218.3719000000954,""reactionTime"":0.20310000038148246},{""time"":1218.7792999997139,""reactionTime"":0.20359999990455435},{""time"":1219.2054000000953,""reactionTime"":0.22210000038126054},{""time"":1219.6190000000001,""reactionTime"":0.21020000028624963},{""time"":1220.236,""reactionTime"":0.21000000000003638},{""time"":1220.6420999999048,""reactionTime"":0.20309999990467986},{""time"":1221.0491999998094,""reactionTime"":0.2031999998093852},{""time"":1221.456299999714,""reactionTime"":0.20389999961867034},{""time"":1221.8717999997139,""reactionTime"":0.20349999999984902},{""time"":1222.278299999714,""reactionTime"":0.20369999980925968},{""time"":1222.685299999714,""reactionTime"":0.20359999990478173},{""time"":1223.0925999999047,""reactionTime"":0.2038000001907676},{""time"":1223.7024000000954,""reactionTime"":0.20360000038135695},{""time"":1224.1099000000954,""reactionTime"":0.20360000038135695},{""time"":1224.5176999998093,""reactionTime"":0.20369999980925968},{""time"":1225.1296999998094,""reactionTime"":0.4080999999046071},{""time"":1225.536799999714,""reactionTime"":0.20329999971409052},{""time"":1225.9440999999047,""reactionTime"":0.20359999990455435},{""time"":1226.350799999714,""reactionTime"":0.20379999971373763}]","[0.20329999971386314,0.2038000001907676,0.20319999980915782,0.203799999713965,0.20310000038148246,0.20359999990455435,0.22210000038126054,0.21020000028624963,0.21000000000003638,0.20309999990467986,0.2031999998093852,0.20389999961867034,0.20349999999984902,0.20369999980925968,0.20359999990478173,0.2038000001907676,0.20360000038135695,0.20360000038135695,0.20369999980925968,0.4080999999046071,0.20329999971409052,0.20359999990455435,0.20379999971373763]","[1,1,1,1,1,1,0.20329999971386314,0.20329999971386314,0.20354999995231537,0.2038000001907676,0.2038000001907676,0.20319999980915782,0.20319999980915782,0.2034999997615614,0.203799999713965,0.20345000004772373,0.20310000038148246,0.2033500001430184,0.20359999990455435,0.21285000014290745,0.22210000038126054,0.2161500003337551,0.21020000028624963,0.21020000028624963,0.21000000000003638,0.21000000000003638,0.20654999995235812,0.20309999990467986,0.20314999985703253,0.2031999998093852,0.20354999971402776,0.20389999961867034,0.20369999980925968,0.20349999999984902,0.20359999990455435,0.20369999980925968,0.2036499998570207,0.20359999990478173,0.20370000004777467,0.2038000001907676,0.2038000001907676,0.20360000038135695,0.20360000038135695,0.20360000038135695,0.20360000038135695,0.20365000009530831,0.20369999980925968,0.20369999980925968,0.4080999999046071,0.4080999999046071,0.3056999998093488,0.20329999971409052,0.20344999980932243,0.20359999990455435,0.203699999809146]","[0,99.82458343334038,99.82458343334038,99.79325900801997,99.76193458269957,99.76193458269957,99.83711317957736,99.83711317957736,99.79952391100956,99.76193464244177,99.8057887542427,99.84964286604362,99.81831850047968,99.78699413491573,98.62799147366272,97.46898881240973,98.21450942990347,98.96003004739723,98.96003004739723,98.98508959961339,98.98508959961339,99.41736626269962,99.84964292578583,99.84337805266735,99.83711317954887,99.79325903787684,99.7494048962048,99.77446438867875,99.7995238811527,99.78699413491573,99.77446438867875,99.780729261783,99.78699413488724,99.77446435879341,99.76193458269957,99.76193458269957,99.78699407517352,99.78699407517352,99.78699407517352,99.78699407517352,99.78072923192613,99.77446438867875,99.77446438867875,74.16363866260296,74.16363866260296,86.99411104795742,99.82458343331189,99.8057887841138,99.78699413491573,99.77446438869299]",1,0.2019,0.05,-0.5,21,96.34293949,0.2031,TRUE,0,18,18,18,1,,,,,,,,,,,,,,,,,,,
Please be patient as the study loads,600319e3a3b1a337cab57a3e,66d895541319693e0a3a3141,66db1c8051ac695591593517,2024-09-06_11h19.10.675,RewardEffortLearning_pilot7b,2023.1.3,Win32,7.486711088,,,,,,,,,,,,,,,,,,,,,,,,,,,,,,,,,,,,,,,,,,,,4,"You reached the planet, you get 4 rubies!",You did not have enough fuel to reach the planet and missed 4 rubies!,stim/image4.png,24,,,,,,,,,,,,,,,,,,,,,,,,,,,,3,3,0,39,0,,,,,,25,25,0,,,"[{""time"":1231.243299999714,""reactionTime"":1},{""time"":1232.0545,""reactionTime"":0.20380000019054023},{""time"":1232.463,""reactionTime"":0.20349999999984902},{""time"":1232.8695999999047,""reactionTime"":0.202599999904578},{""time"":1233.276299999714,""reactionTime"":0.20269999980928333},{""time"":1233.8871999998094,""reactionTime"":1},{""time"":1234.7035,""reactionTime"":0.20370000028606228},{""time"":1235.1115999999047,""reactionTime"":0.2039999999999509},{""time"":1235.519799999714,""reactionTime"":0.20409999990465622},{""time"":1236.1309000000954,""reactionTime"":0.20349999999984902},{""time"":1236.537299999714,""reactionTime"":0.20309999990467986},{""time"":1237.3499000000954,""reactionTime"":0.6093000001908422},{""time"":1237.7565999999047,""reactionTime"":0.20299999999997453},{""time"":1238.1635999999046,""reactionTime"":0.20359999990455435},{""time"":1238.5700999999046,""reactionTime"":0.20309999990467986},{""time"":1239.1796999998094,""reactionTime"":0.20359999990478173},{""time"":1239.5865999999046,""reactionTime"":0.20340000009537107},{""time"":1240.4001999998093,""reactionTime"":1},{""time"":1240.6040999999047,""reactionTime"":0.8146999998093634},{""time"":1241.0115999999048,""reactionTime"":0.20330000019089312},{""time"":1242.0299000000955,""reactionTime"":1}]","[0.20380000019054023,0.20349999999984902,0.202599999904578,0.20269999980928333,0.20370000028606228,0.2039999999999509,0.20409999990465622,0.20349999999984902,0.20309999990467986,0.6093000001908422,0.20299999999997453,0.20359999990455435,0.20309999990467986,0.20359999990478173,0.20340000009537107,0.8146999998093634,0.20330000019089312]","[1,1,1,0.20380000019054023,0.20380000019054023,0.20365000009519463,0.20349999999984902,0.2030499999522135,0.202599999904578,0.20264999985693066,0.20269999980928333,0.20269999980928333,1,1,1,0.20370000028606228,0.20370000028606228,0.20385000014300658,0.2039999999999509,0.20404999995230355,0.20409999990465622,0.20409999990465622,0.20349999999984902,0.20349999999984902,0.20329999995226444,0.20309999990467986,0.20309999990467986,0.6093000001908422,0.6093000001908422,0.40615000009540836,0.20299999999997453,0.20329999995226444,0.20359999990455435,0.2033499999046171,0.20309999990467986,0.20309999990467986,0.20359999990478173,0.20359999990478173,0.2035000000000764,0.20340000009537107,0.20340000009537107,1,0.9073499999046817,0.9073499999046817,0.5090000000001282,0.20330000019089312,0.20330000019089312,1]","[99.76193458272805,99.78072923194038,99.7995238811527,99.85590779891857,99.91229171668444,99.90602684356594,99.89976197044746,99.89976197044746,0,0,0,99.77446432893655,99.77446432893655,99.75566970959532,99.7368750902541,99.73061021713562,99.72434534401712,99.72434534401712,99.7995238811527,99.7995238811527,99.82458340346926,99.84964292578583,99.84964292578583,48.95376517427873,48.95376517427873,74.40796892315078,99.86217267202281,99.82458340346926,99.78699413491573,99.81831853035078,99.84964292578583,99.84964292578583,99.78699413488724,99.78699413488724,99.7995238811242,99.81205362736118,99.81205362736118,0,11.608820963088217,11.608820963088217,61.521112649873054,99.82458337356968,99.82458337356968,0]",1,0.2019,0.05,-0.5,25,80.70118236,0.2026,TRUE,0,19,19,19,1,,,,,,,,,,,,,,,,,,,
Please be patient as the study loads,600319e3a3b1a337cab57a3e,66d895541319693e0a3a3141,66db1c8051ac695591593517,2024-09-06_11h19.10.675,RewardEffortLearning_pilot7b,2023.1.3,Win32,7.486711088,,,,,,,,,,,,,,,,,,,,,,,,,,,,,,,,,,,,,,,,,,,,0,"You reached the planet, but a space pirate already plundered all the rubies!",You did not have enough fuel to reach the planet and a space pirate already plundered all the rubies!,stim/None.png,23,,,,,,,,,,,,,,,,,,,,,,,,,,,,7,6,0,39,0,,,"[""return""]",[3.23700000000008],[null],10,5,0,,,"[{""time"":1257.175799999714,""reactionTime"":1},{""time"":1257.7864000000955,""reactionTime"":1},{""time"":1258.6034000000955,""reactionTime"":0.20370000028606228},{""time"":1259.215299999714,""reactionTime"":0.2048999996186467},{""time"":1260.0286999998093,""reactionTime"":0.20369999980925968},{""time"":1260.6552999997139,""reactionTime"":1},{""time"":1261.0715,""reactionTime"":0.20780000019067302},{""time"":1261.526799999714,""reactionTime"":0.2505999999048072},{""time"":1262.327299999714,""reactionTime"":0.23269999980925604},{""time"":1262.8155999999046,""reactionTime"":0.2543000001905966},{""time"":1263.6464000000954,""reactionTime"":0.20380000019054023},{""time"":1264.471799999714,""reactionTime"":0.406399999618543},{""time"":1265.2896999998093,""reactionTime"":1},{""time"":1265.4931999998093,""reactionTime"":0.8171999998091906},{""time"":1266.1059000000955,""reactionTime"":0.20420000028616414},{""time"":1266.717299999714,""reactionTime"":0.40739999961851936},{""time"":1267.1241999998094,""reactionTime"":0.20340000009537107},{""time"":1267.5316999998092,""reactionTime"":0.20369999980925968},{""time"":1268.144799999714,""reactionTime"":0.20199999999999818}]","[0.20370000028606228,0.2048999996186467,0.20369999980925968,0.20780000019067302,0.2505999999048072,0.23269999980925604,0.2543000001905966,0.20380000019054023,0.406399999618543,0.8171999998091906,0.20420000028616414,0.40739999961851936,0.20340000009537107,0.20369999980925968,0.20199999999999818]","[1,1,1,1,1,1,0.20370000028606228,0.20370000028606228,0.20370000028606228,0.2048999996186467,0.2048999996186467,0.2048999996186467,0.20369999980925968,0.20369999980925968,0.20369999980925968,1,1,0.6039000000953365,0.20780000019067302,0.2292000000477401,0.2505999999048072,0.23269999980925604,0.23269999980925604,0.24349999999992633,0.2543000001905966,0.2543000001905966,0.20380000019054023,0.20380000019054023,0.20380000019054023,0.406399999618543,0.406399999618543,0.406399999618543,1,0.9085999999045953,0.9085999999045953,0.8171999998091906,0.20420000028616414,0.20420000028616414,0.20420000028616414,0.40739999961851936,0.40739999961851936,0.3053999998569452,0.20340000009537107,0.20354999995231537,0.20369999980925968,0.20369999980925968,0.20199999999999818,0.20199999999999818,0.20199999999999818]","[0,99.77446432893655,99.77446432893655,99.77446432893655,99.62410731443609,99.62410731443609,99.62410731443609,99.77446438867875,99.77446438867875,99.77446438867875,0,0,49.63037212781237,99.26074425562474,96.57937602362018,93.89800779161564,96.14083451730082,96.14083451730082,94.78762061027628,93.43440670325174,93.43440670325174,99.76193458272805,99.76193458272805,99.76193458272805,74.37664458745793,74.37664458745793,74.37664458745793,0,11.452198985884465,11.452198985884465,22.90439797176892,99.71181553803794,99.71181553803794,99.71181553803794,74.25134700568923,74.25134700568923,87.0317003165252,99.81205362736118,99.79325900801997,99.77446438867875,99.77446438867875,99.98747025379151,99.98747025379151,99.98747025379151]",1,0.2019,0.05,-0.5,25,79.83719859,0.202,TRUE,0,20,20,20,1,,,,,,,,,,,,,,,,,,,
